Instrucciones,Texto,Ud,Otro,Type,Rol_otro,Otro_transf,Multiplicador,Ud_manos,fichas_base,TextoR,Pregunta,instruccioness.thisRepN,instruccioness.thisTrialN,instruccioness.thisN,instruccioness.thisIndex,Trainingg.thisRepN,Trainingg.thisTrialN,Trainingg.thisN,Trainingg.thisIndex,trials_2.thisRepN,trials_2.thisTrialN,trials_2.thisN,trials_2.thisIndex,trials.thisRepN,trials.thisTrialN,trials.thisN,trials.thisIndex,Instrucciones1.started,Instrucciones1.stopped,Mouse_Instructions.x,Mouse_Instructions.y,Mouse_Instructions.leftButton,Mouse_Instructions.midButton,Mouse_Instructions.rightButton,Mouse_Instructions.clicked_name,Mouse_Instructions.started,Mouse_Instructions.stopped,next_button.started,next_button.stopped,form.index,form.itemText,form.type,form.response,form.rt,quiz_mouse.x,quiz_mouse.y,quiz_mouse.leftButton,quiz_mouse.midButton,quiz_mouse.rightButton,quiz_mouse.clicked_name,quiz_mouse.started,quiz_mouse.stopped,quiz_next.started,quiz_next.stopped,text_quiz.started,text_quiz.stopped,Partition_texto.started,Partition_texto.stopped,partition_mouse.x,partition_mouse.y,partition_mouse.leftButton,partition_mouse.midButton,partition_mouse.rightButton,partition_mouse.clicked_name,partition_mouse.started,partition_mouse.stopped,partition_image.started,partition_image.stopped,rolotro,start_region_2.started,start_region_2.stopped,tracking_2.x,tracking_2.y,tracking_2.leftButton,tracking_2.midButton,tracking_2.rightButton,tracking_2.time,tracking_2.clicked_name,tracking_2.started,tracking_2.stopped,tracking_2.startedR,tracking_2.stoppedR,start_region_2.pos,Question_2.started,Question_2.stopped,O0.startedR,O0.stoppedR,O0_choiceR.pos,Total_Time,Resp_Time,Mov_Time,Time_to_start,liftedFinger,in_number_line,UD_FINAL,OTRO_FINAL,ROL_OTRO_FINAL,next_button_numline.started,next_button_numline.stopped,fin_entrenamiento_texto.started,fin_entrenamiento_texto.stopped,fin_entrenamiento_mouse.x,fin_entrenamiento_mouse.y,fin_entrenamiento_mouse.leftButton,fin_entrenamiento_mouse.midButton,fin_entrenamiento_mouse.rightButton,fin_entrenamiento_mouse.clicked_name,fin_entrenamiento_image.started,fin_entrenamiento_image.stopped,text.started,text.stopped,next_button2.started,next_button2.stopped,mouse2.x,mouse2.y,mouse2.leftButton,mouse2.midButton,mouse2.rightButton,mouse2.clicked_name,mouse2.started,mouse2.stopped,text_2.started,text_2.stopped,Cedula,date,expName,psychopyVersion,frameRate,
1,"Este juego es en parejas. Usted lo jugará con otra persona, que será elegida al azar. Usted podrá ser la persona 1 o el otro la persona 2. El rol se asignará al azar. 

Oprima la flecha para continuar.",,,,,,,,,,,0,0,0,0,,,,,,,,,,,,,12.821320999995805,None,0.8333333333333334,-0.8098765432098766,1,0,0,next_button,0.004073130083270371,None,12.821320999995805,None,,,,,,,,,,,,,,,,,,,,,,,,,,,,,,,,,,,,,,,,,,,,,,,,,,,,,,,,,,,,,,,,,,,,,,,,,,,,,,,,,,,,,tt3,2021_May_20_0535,Dictador,2021.1.4,60.11334974160353,
2,"La persona 1 recibirá un total de 5 fichas. Cada ficha vale $5,000 pesos. La persona 1 debe decidir cómo dividir las fichas entre la persona 1 y la persona 2. La persona 1 puede transferir a la persona 2 0, 1, 2, 3 , 4, o 5 fichas. 

Oprima la flecha para continuar",,,,,,,,,,,0,1,1,1,,,,,,,,,,,,,40.03015929996036,None,0.8333333333333334,-0.8098765432098766,1,0,0,next_button,0.0014265099889598787,None,40.03015929996036,None,,,,,,,,,,,,,,,,,,,,,,,,,,,,,,,,,,,,,,,,,,,,,,,,,,,,,,,,,,,,,,,,,,,,,,,,,,,,,,,,,,,,,tt3,2021_May_20_0535,Dictador,2021.1.4,60.11334974160353,
3,"La persona 2 no tiene que tomar ninguna decisión. Simplemente recibe las fichas que decida transferir la persona 1. Es decir, luego de que la persona 1 decida cuánto le transfiere a la Persona 2, los pagos son cómo lo haya determinado la persona 1. 

Oprima la flecha para continuar",,,,,,,,,,,0,2,2,2,,,,,,,,,,,,,41.3481749999919,None,0.8333333333333334,-0.8098765432098766,1,0,0,next_button,0.004147209983784705,None,41.3481749999919,None,,,,,,,,,,,,,,,,,,,,,,,,,,,,,,,,,,,,,,,,,,,,,,,,,,,,,,,,,,,,,,,,,,,,,,,,,,,,,,,,,,,,,tt3,2021_May_20_0535,Dictador,2021.1.4,60.11334974160353,
4,"Ejemplo 1:  La persona 1 le transfiere 2 fichas a la Persona 2. La actividad termina y los pagos son 3 fichas para la persona 1 y 2 fichas para la persona 2. Es decir, $15.000 para la persona 1 y $10.000 para la persona 2.

Oprima la flecha para continuar",,,,,,,,,,,0,3,3,3,,,,,,,,,,,,,41.86536699999124,None,0.8333333333333334,-0.8098765432098766,1,0,0,next_button,0.007129809993784875,None,41.86536699999124,None,,,,,,,,,,,,,,,,,,,,,,,,,,,,,,,,,,,,,,,,,,,,,,,,,,,,,,,,,,,,,,,,,,,,,,,,,,,,,,,,,,,,,tt3,2021_May_20_0535,Dictador,2021.1.4,60.11334974160353,
5,"Ejemplo 2: La persona 1 le transfiere 4 fichas a la Persona 2. La actividad termina y los pagos son 1 ficha para la persona 1 y 4 fichas para la persona 2. Es decir, $5.000 para la persona 1 y $20.000 para la persona 2.

Oprima la flecha para continuar.",,,,,,,,,,,0,4,4,4,,,,,,,,,,,,,42.33249519998208,None,0.8,-0.8074074074074075,1,0,0,next_button,0.007566610001958907,None,42.33249519998208,None,,,,,,,,,,,,,,,,,,,,,,,,,,,,,,,,,,,,,,,,,,,,,,,,,,,,,,,,,,,,,,,,,,,,,,,,,,,,,,,,,,,,,tt3,2021_May_20_0535,Dictador,2021.1.4,60.11334974160353,
6,"Para dar su respuesta en cada turno muevase al cuadro inferior para que aparezca una barra deslizadora. Desplacese a la cantidad que le daria al OTRO. 

Oprima la flecha para continuar.",,,,,,,,,,,0,5,5,5,,,,,,,,,,,,,57.08048800000688,None,0.7916666666666666,-0.762962962962963,1,0,0,next_button,0.007255310018081218,None,57.08048800000688,None,,,,,,,,,,,,,,,,,,,,,,,,,,,,,,,,,,,,,,,,,,,,,,,,,,,,,,,,,,,,,,,,,,,,,,,,,,,,,,,,,,,,,tt3,2021_May_20_0535,Dictador,2021.1.4,60.11334974160353,
7,"Si esta en su celular o una tableta, desplace su dedo por la pantalla mientras escoge.

Oprima la flecha para continuar.",,,,,,,,,,,0,6,6,6,,,,,,,,,,,,,79.78642029996263,None,0.8083333333333333,-0.817283950617284,1,0,0,next_button,0.011231110023800284,None,79.78642029996263,None,,,,,,,,,,,,,,,,,,,,,,,,,,,,,,,,,,,,,,,,,,,,,,,,,,,,,,,,,,,,,,,,,,,,,,,,,,,,,,,,,,,,,tt3,2021_May_20_0535,Dictador,2021.1.4,60.11334974160353,
8,"Empecemos con un quiz y un entrenamiento corto para familiarizarse como debe responder.

Oprima la flecha para continuar.",,,,,,,,,,,0,7,7,7,,,,,,,,,,,,,95.60206790000666,None,0.7708333333333334,-0.7876543209876543,1,0,0,next_button,0.010314809973351657,None,95.60206790000666,None,,,,,,,,,,,,,,,,,,,,,,,,,,,,,,,,,,,,,,,,,,,,,,,,,,,,,,,,,,,,,,,,,,,,,,,,,,,,,,,,,,,,,tt3,2021_May_20_0535,Dictador,2021.1.4,60.11334974160353,
,,,,,,,,,,,,,,,,,,,,,,,,,,,,,,,,,,,,,,,,1,"Si usted decide darle a la otra persona 3 fichas, con cuantas fichas se queda usted?",radio,2,2.0887166000320576,,,,,,,,,,,,,,,,,,,,,,,,,,,,,,,,,,,,,,,,,,,,,,,,,,,,,,,,,,,,,,,,,,,,,,,,,,,,,,,,tt3,2021_May_20_0535,Dictador,2021.1.4,60.11334974160353,
,,,,,,,,,,,,,,,,,,,,,,,,,,,,,,,,,,,,,,,,2,con cuantas fichas se queda la persona 2?,radio,3,11.734342099982314,,,,,,,,,,,,,,,,,,,,,,,,,,,,,,,,,,,,,,,,,,,,,,,,,,,,,,,,,,,,,,,,,,,,,,,,,,,,,,,,tt3,2021_May_20_0535,Dictador,2021.1.4,60.11334974160353,
,,,,,,,,,,,,,,,,,,,,,,,,,,,,,,,,,,,,,,,,,,,,,0.7944444444444444,-0.8222222222222222,1,0,0,quiz_next,0.013920009951107204,None,,,,,,,,,,,,,,,,,,,,,,,,,,,,,,,,,,,,,,,,,,,,,,,,,,,,,,,,,,,,,,,,,,,,,,,,tt3,2021_May_20_0535,Dictador,2021.1.4,60.11334974160353,
,,0,0,Train,Otro,5,3,25,10,,,,,,,0,0,0,0,,,,,,,,,,,,,,,,,,,,,,,,,,,,,,,,,,119.47579189995304,None,107.6974003999494,None,120.07645910000429,None,0.7944444444444444,-0.8222222222222222,1,0,0,partition_image,0.004287510004360229,None,120.07645910000429,None,Otro,124.49724719999358,142.23197751000407,"[0.7944444444444444, 0.7944444444444444, 0.7944444444444444, 0.7944444444444444, 0.7944444444444444, 0.7944444444444444, 0.7944444444444444, 0.7944444444444444, 0.7944444444444444, 0.7944444444444444, 0.7944444444444444, 0.7944444444444444, 0.7944444444444444, 0.7944444444444444, 0.7944444444444444, 0.7944444444444444, 0.7944444444444444, 0.7944444444444444, 0.7944444444444444, 0.7944444444444444, 0.7944444444444444, 0.7944444444444444, 0.7944444444444444, 0.7944444444444444, 0.7944444444444444, 0.7944444444444444, 0.7944444444444444, 0.7944444444444444, 0.7944444444444444, 0.7944444444444444, 0.7944444444444444, 0.7944444444444444, 0.7944444444444444, 0.7944444444444444, 0.7944444444444444, 0.7944444444444444, 0.7944444444444444, 0.7944444444444444, 0.7944444444444444, 0.7944444444444444, 0.7944444444444444, 0.7944444444444444, 0.7944444444444444, 0.7944444444444444, 0.7944444444444444, 0.7944444444444444, 0.7944444444444444, 0.7944444444444444, 0.7944444444444444, 0.7944444444444444, 0.7944444444444444, 0.7944444444444444, 0.7944444444444444, 0.7944444444444444, 0.7944444444444444, 0.7944444444444444, 0.7944444444444444, 0.7944444444444444, 0.7944444444444444, 0.7944444444444444, 0.7944444444444444, 0.7944444444444444, 0.7944444444444444, 0.7944444444444444, 0.7944444444444444, 0.7944444444444444, 0.7944444444444444, 0.7944444444444444, 0.7944444444444444, 0.7944444444444444, 0.7944444444444444, 0.7944444444444444, 0.7944444444444444, 0.7944444444444444, 0.7944444444444444, 0.7944444444444444, 0.7944444444444444, 0.7944444444444444, 0.7944444444444444, 0.7944444444444444, 0.7944444444444444, 0.7944444444444444, 0.7944444444444444, 0.7944444444444444, 0.7944444444444444, 0.7944444444444444, 0.7944444444444444, 0.7944444444444444, 0.7944444444444444, 0.7944444444444444, 0.7944444444444444, 0.7944444444444444, 0.7944444444444444, 0.7902777777777777, 0.7694444444444445, 0.7347222222222223, 0.6791666666666667, 0.6041666666666666, 0.5333333333333333, 0.46805555555555556, 0.40694444444444444, 0.34305555555555556, 0.2875, 0.23472222222222222, 0.18333333333333332, 0.12083333333333333, 0.08055555555555556, 0.05555555555555555, 0.04861111111111111, 0.04722222222222222, 0.04722222222222222, 0.04722222222222222, 0.04722222222222222, 0.04722222222222222, 0.04722222222222222, 0.04722222222222222, 0.04722222222222222, 0.04722222222222222, 0.04722222222222222, 0.04722222222222222, 0.04722222222222222, 0.04722222222222222, 0.04722222222222222, 0.04722222222222222, 0.04722222222222222, 0.04722222222222222, 0.04722222222222222, 0.04722222222222222, 0.04722222222222222, 0.04722222222222222, 0.04722222222222222, 0.04722222222222222, 0.04722222222222222, 0.04722222222222222, 0.04722222222222222, 0.04722222222222222, 0.04722222222222222, 0.04722222222222222, 0.04722222222222222, 0.04722222222222222, 0.04722222222222222, 0.04722222222222222, 0.04722222222222222, 0.04722222222222222, 0.044444444444444446, 0.043055555555555555, 0.043055555555555555, 0.043055555555555555, 0.043055555555555555, 0.043055555555555555, 0.043055555555555555, 0.043055555555555555, 0.043055555555555555, 0.043055555555555555, 0.043055555555555555, 0.043055555555555555, 0.043055555555555555, 0.043055555555555555, 0.043055555555555555, 0.043055555555555555, 0.043055555555555555, 0.043055555555555555, 0.043055555555555555, 0.043055555555555555, 0.043055555555555555, 0.043055555555555555, 0.043055555555555555, 0.043055555555555555, 0.043055555555555555, 0.043055555555555555, 0.043055555555555555, 0.043055555555555555, 0.043055555555555555, 0.043055555555555555, 0.043055555555555555, 0.043055555555555555, 0.043055555555555555, 0.043055555555555555, 0.043055555555555555, 0.043055555555555555, 0.043055555555555555, 0.043055555555555555, 0.043055555555555555, 0.043055555555555555, 0.043055555555555555, 0.043055555555555555, 0.043055555555555555, 0.043055555555555555, 0.043055555555555555, 0.043055555555555555, 0.043055555555555555, 0.043055555555555555, 0.043055555555555555, 0.043055555555555555, 0.043055555555555555, 0.043055555555555555, 0.043055555555555555, 0.043055555555555555, 0.043055555555555555, 0.043055555555555555, 0.043055555555555555, 0.043055555555555555, 0.043055555555555555, 0.043055555555555555, 0.043055555555555555, 0.043055555555555555, 0.043055555555555555, 0.043055555555555555, 0.043055555555555555, 0.043055555555555555, 0.043055555555555555, 0.043055555555555555, 0.043055555555555555, 0.043055555555555555, 0.043055555555555555, 0.043055555555555555, 0.043055555555555555, 0.043055555555555555, 0.043055555555555555, 0.043055555555555555, 0.043055555555555555, 0.043055555555555555, 0.043055555555555555, 0.043055555555555555, 0.043055555555555555, 0.043055555555555555, 0.043055555555555555, 0.043055555555555555, 0.043055555555555555, 0.043055555555555555, 0.043055555555555555, 0.043055555555555555, 0.043055555555555555, 0.043055555555555555, 0.043055555555555555, 0.043055555555555555, 0.043055555555555555, 0.043055555555555555, 0.043055555555555555, 0.043055555555555555, 0.043055555555555555, 0.043055555555555555, 0.043055555555555555, 0.043055555555555555, 0.043055555555555555, 0.043055555555555555, 0.043055555555555555, 0.043055555555555555, 0.043055555555555555, 0.043055555555555555, 0.043055555555555555, 0.043055555555555555, 0.043055555555555555, 0.043055555555555555, 0.043055555555555555, 0.043055555555555555, 0.043055555555555555, 0.043055555555555555, 0.043055555555555555, 0.043055555555555555, 0.043055555555555555, 0.043055555555555555, 0.043055555555555555, 0.043055555555555555, 0.043055555555555555, 0.043055555555555555, 0.043055555555555555, 0.043055555555555555, 0.043055555555555555, 0.043055555555555555, 0.043055555555555555, 0.043055555555555555, 0.043055555555555555, 0.043055555555555555, 0.043055555555555555, 0.043055555555555555, 0.043055555555555555, 0.043055555555555555, 0.043055555555555555, 0.043055555555555555, 0.043055555555555555, 0.043055555555555555, 0.043055555555555555, 0.043055555555555555, 0.043055555555555555, 0.043055555555555555, 0.043055555555555555, 0.043055555555555555, 0.043055555555555555, 0.043055555555555555, 0.043055555555555555, 0.043055555555555555, 0.043055555555555555, 0.043055555555555555, 0.043055555555555555, 0.043055555555555555, 0.043055555555555555, 0.043055555555555555, 0.043055555555555555, 0.043055555555555555, 0.043055555555555555, 0.043055555555555555, 0.043055555555555555, 0.043055555555555555, 0.043055555555555555, 0.043055555555555555, 0.043055555555555555, 0.043055555555555555, 0.043055555555555555, 0.043055555555555555, 0.043055555555555555, 0.043055555555555555, 0.043055555555555555, 0.043055555555555555, 0.043055555555555555, 0.043055555555555555, 0.043055555555555555, 0.043055555555555555, 0.043055555555555555, 0.043055555555555555, 0.043055555555555555, 0.043055555555555555, 0.043055555555555555, 0.043055555555555555, 0.043055555555555555, 0.043055555555555555, 0.043055555555555555, 0.043055555555555555, 0.043055555555555555, 0.043055555555555555, 0.043055555555555555, 0.04027777777777778, 0.025, 0.002777777777777778, -0.019444444444444445, -0.041666666666666664, -0.06527777777777778, -0.08611111111111111, -0.10833333333333334, -0.11944444444444445, -0.12777777777777777, -0.1361111111111111, -0.15, -0.16666666666666666, -0.18194444444444444, -0.18611111111111112, -0.19027777777777777, -0.19166666666666668, -0.19722222222222222, -0.20555555555555555, -0.20972222222222223, -0.2125, -0.21388888888888888, -0.21666666666666667, -0.22083333333333333, -0.225, -0.22916666666666666, -0.23333333333333334, -0.2388888888888889, -0.24027777777777778, -0.24166666666666667, -0.24722222222222223, -0.24861111111111112, -0.25, -0.25555555555555554, -0.2625, -0.26944444444444443, -0.28055555555555556, -0.2833333333333333, -0.2916666666666667, -0.2986111111111111, -0.3055555555555556, -0.30833333333333335, -0.30833333333333335, -0.30833333333333335, -0.30833333333333335, -0.30833333333333335, -0.30833333333333335, -0.30833333333333335, -0.30833333333333335, -0.30833333333333335, -0.30833333333333335, -0.30833333333333335, -0.30833333333333335, -0.30833333333333335, -0.30833333333333335, -0.30833333333333335, -0.30833333333333335, -0.30833333333333335, -0.30833333333333335, -0.30833333333333335, -0.30833333333333335, -0.30833333333333335, -0.30833333333333335, -0.30833333333333335, -0.30833333333333335, -0.30833333333333335, -0.30833333333333335, -0.30833333333333335, -0.30833333333333335, -0.30833333333333335, -0.30833333333333335, -0.30833333333333335, -0.30833333333333335, -0.30833333333333335, -0.30833333333333335, -0.30833333333333335, -0.30833333333333335, -0.30833333333333335, -0.30833333333333335, -0.30833333333333335, -0.30833333333333335, -0.30833333333333335, -0.30833333333333335, -0.30833333333333335, -0.30833333333333335, -0.30833333333333335, -0.30833333333333335, -0.30833333333333335, -0.30833333333333335, -0.30833333333333335, -0.30833333333333335, -0.30833333333333335, -0.30833333333333335, -0.30833333333333335, -0.30833333333333335, -0.30833333333333335, -0.30833333333333335, -0.30833333333333335, -0.30833333333333335, -0.30833333333333335, -0.30833333333333335, -0.30833333333333335, -0.30833333333333335, -0.30833333333333335, -0.30833333333333335, -0.30833333333333335, -0.30833333333333335, -0.30833333333333335, -0.30833333333333335, -0.30833333333333335, -0.30833333333333335, -0.30833333333333335, -0.30833333333333335, -0.30833333333333335, -0.30833333333333335, -0.30833333333333335, -0.30833333333333335, -0.30833333333333335, -0.30833333333333335, -0.30833333333333335, -0.30833333333333335, -0.30833333333333335, -0.30833333333333335, -0.30833333333333335, -0.30833333333333335, -0.30833333333333335, -0.30833333333333335, -0.30833333333333335, -0.30833333333333335, -0.30833333333333335, -0.30833333333333335, -0.30833333333333335, -0.30833333333333335, -0.30833333333333335, -0.30833333333333335, -0.30833333333333335, -0.30833333333333335, -0.30833333333333335, -0.30833333333333335, -0.30833333333333335, -0.30833333333333335, -0.30833333333333335, -0.30833333333333335, -0.30833333333333335, -0.30833333333333335, -0.30833333333333335, -0.30833333333333335, -0.30833333333333335, -0.30833333333333335, -0.30833333333333335, -0.30833333333333335, -0.30833333333333335, -0.30833333333333335, -0.30833333333333335, -0.30833333333333335, -0.30833333333333335, -0.30833333333333335, -0.30833333333333335, -0.30833333333333335, -0.30833333333333335, -0.30833333333333335, -0.30833333333333335, -0.30833333333333335, -0.30833333333333335, -0.30833333333333335, -0.30833333333333335, -0.30833333333333335, -0.30833333333333335, -0.30833333333333335, -0.30833333333333335, -0.30833333333333335, -0.30833333333333335, -0.30833333333333335, -0.30833333333333335, -0.30833333333333335, -0.30833333333333335, -0.30833333333333335, -0.30833333333333335, -0.30833333333333335, -0.30833333333333335, -0.30833333333333335, -0.30833333333333335, -0.30833333333333335, -0.30833333333333335, -0.30833333333333335, -0.30833333333333335, -0.30833333333333335, -0.30833333333333335, -0.30833333333333335, -0.30833333333333335, -0.30833333333333335, -0.30833333333333335, -0.30833333333333335, -0.30833333333333335, -0.30833333333333335, -0.30833333333333335, -0.30833333333333335, -0.30833333333333335, -0.30833333333333335, -0.30833333333333335, -0.30833333333333335, -0.30833333333333335, -0.30833333333333335, -0.30833333333333335, -0.30833333333333335, -0.30833333333333335, -0.30833333333333335, -0.30833333333333335, -0.30833333333333335, -0.30833333333333335, -0.30833333333333335, -0.30833333333333335, -0.30833333333333335, -0.30833333333333335, -0.30833333333333335, -0.30833333333333335, -0.30833333333333335, -0.30833333333333335, -0.30833333333333335, -0.30833333333333335, -0.30833333333333335, -0.30833333333333335, -0.30833333333333335, -0.30833333333333335, -0.30833333333333335, -0.30833333333333335, -0.30833333333333335, -0.30833333333333335, -0.30833333333333335, -0.30833333333333335, -0.30833333333333335, -0.30833333333333335, -0.30833333333333335, -0.30833333333333335, -0.30833333333333335, -0.30833333333333335, -0.30833333333333335, -0.30833333333333335, -0.30833333333333335, -0.30833333333333335, -0.30833333333333335, -0.30833333333333335, -0.30833333333333335, -0.30833333333333335, -0.30833333333333335, -0.30833333333333335, -0.30833333333333335, -0.30833333333333335, -0.30833333333333335, -0.30833333333333335, -0.30833333333333335, -0.30833333333333335, -0.30833333333333335, -0.30833333333333335, -0.30833333333333335, -0.30833333333333335, -0.30833333333333335, -0.30833333333333335, -0.30833333333333335, -0.30833333333333335, -0.30833333333333335, -0.30833333333333335, -0.30833333333333335, -0.30833333333333335, -0.30833333333333335, -0.30833333333333335, -0.30833333333333335, -0.30833333333333335, -0.30833333333333335, -0.30833333333333335, -0.30833333333333335, -0.30833333333333335, -0.30833333333333335, -0.30833333333333335, -0.30833333333333335, -0.30833333333333335, -0.30833333333333335, -0.30833333333333335, -0.30833333333333335, -0.30833333333333335, -0.30833333333333335, -0.30833333333333335, -0.30833333333333335, -0.30833333333333335, -0.30833333333333335, -0.30833333333333335, -0.30833333333333335, -0.30833333333333335, -0.30833333333333335, -0.30833333333333335, -0.30833333333333335, -0.30833333333333335, -0.30833333333333335, -0.30833333333333335, -0.30833333333333335, -0.30833333333333335, -0.30833333333333335, -0.30833333333333335, -0.30833333333333335, -0.30833333333333335, -0.30833333333333335, -0.30833333333333335, -0.30833333333333335, -0.30833333333333335, -0.30833333333333335, -0.30833333333333335, -0.30833333333333335, -0.30833333333333335, -0.30833333333333335, -0.30833333333333335, -0.30833333333333335, -0.30833333333333335, -0.30833333333333335, -0.30833333333333335, -0.30833333333333335, -0.30833333333333335, -0.30833333333333335, -0.30833333333333335, -0.30833333333333335, -0.30833333333333335, -0.30833333333333335, -0.30833333333333335, -0.30833333333333335, -0.30833333333333335, -0.30833333333333335, -0.30833333333333335, -0.30833333333333335, -0.30833333333333335, -0.30833333333333335, -0.30833333333333335, -0.30833333333333335, -0.30833333333333335, -0.30833333333333335, -0.30833333333333335, -0.30833333333333335, -0.30833333333333335, -0.30833333333333335, -0.30833333333333335, -0.30833333333333335, -0.30833333333333335, -0.30833333333333335, -0.30833333333333335, -0.30833333333333335, -0.30833333333333335, -0.30833333333333335, -0.30833333333333335, -0.30833333333333335, -0.30833333333333335, -0.30833333333333335, -0.30833333333333335, -0.30833333333333335, -0.30833333333333335, -0.30833333333333335, -0.30833333333333335, -0.30833333333333335, -0.30833333333333335, -0.30833333333333335, -0.30833333333333335, -0.30833333333333335, -0.30833333333333335, -0.30833333333333335, -0.30833333333333335, -0.30833333333333335, -0.30833333333333335, -0.30833333333333335, -0.30833333333333335, -0.30833333333333335, -0.30833333333333335, -0.30833333333333335, -0.30833333333333335, -0.30833333333333335, -0.30833333333333335, -0.30833333333333335, -0.30833333333333335, -0.30833333333333335, -0.30833333333333335, -0.30833333333333335, -0.30833333333333335, -0.30833333333333335, -0.30833333333333335, -0.30833333333333335, -0.30833333333333335, -0.30833333333333335, -0.30833333333333335, -0.30833333333333335, -0.30833333333333335, -0.30833333333333335, -0.30833333333333335, -0.30833333333333335, -0.30833333333333335, -0.30833333333333335, -0.30833333333333335, -0.30833333333333335, -0.30833333333333335, -0.30833333333333335, -0.30833333333333335, -0.30833333333333335, -0.30833333333333335, -0.30833333333333335, -0.30833333333333335, -0.30833333333333335, -0.30833333333333335, -0.30833333333333335, -0.30833333333333335, -0.30833333333333335, -0.30833333333333335, -0.30833333333333335, -0.30833333333333335, -0.30833333333333335, -0.30833333333333335, -0.30833333333333335, -0.30833333333333335, -0.30833333333333335, -0.30833333333333335, -0.30833333333333335, -0.30833333333333335, -0.30833333333333335, -0.30833333333333335, -0.30833333333333335, -0.30833333333333335, -0.30833333333333335, -0.30833333333333335, -0.30833333333333335, -0.30833333333333335, -0.30833333333333335, -0.30833333333333335, -0.30833333333333335, -0.30833333333333335, -0.30833333333333335, -0.30833333333333335, -0.30833333333333335, -0.30833333333333335, -0.30833333333333335, -0.30833333333333335, -0.30833333333333335, -0.30833333333333335, -0.30833333333333335, -0.30833333333333335, -0.30833333333333335, -0.30833333333333335, -0.30833333333333335, -0.30833333333333335, -0.30833333333333335, -0.30833333333333335, -0.30833333333333335, -0.30833333333333335, -0.30833333333333335, -0.30833333333333335, -0.30833333333333335, -0.30833333333333335, -0.30833333333333335, -0.30833333333333335, -0.30833333333333335, -0.30833333333333335, -0.30833333333333335, -0.30833333333333335, -0.30833333333333335, -0.30833333333333335, -0.30833333333333335, -0.30833333333333335, -0.30833333333333335, -0.30833333333333335, -0.30833333333333335, -0.30833333333333335, -0.30833333333333335, -0.30833333333333335, -0.30833333333333335, -0.30833333333333335, -0.30833333333333335, -0.30833333333333335, -0.30833333333333335, -0.30833333333333335, -0.30833333333333335, -0.30833333333333335, -0.30833333333333335, -0.30833333333333335, -0.30833333333333335, -0.30833333333333335, -0.30833333333333335, -0.30833333333333335, -0.30833333333333335, -0.30833333333333335, -0.30833333333333335, -0.30833333333333335, -0.30833333333333335, -0.30833333333333335, -0.30833333333333335, -0.30833333333333335, -0.30833333333333335, -0.30833333333333335, -0.30833333333333335, -0.30833333333333335, -0.30833333333333335, -0.30833333333333335, -0.30833333333333335, -0.30833333333333335, -0.30833333333333335, -0.30833333333333335, -0.30833333333333335, -0.30833333333333335, -0.30833333333333335, -0.30833333333333335, -0.30833333333333335, -0.30833333333333335, -0.30833333333333335, -0.30833333333333335, -0.30833333333333335, -0.30833333333333335, -0.30833333333333335, -0.30833333333333335, -0.30833333333333335, -0.30833333333333335, -0.30833333333333335, -0.30833333333333335, -0.30833333333333335, -0.30833333333333335, -0.30833333333333335, -0.30833333333333335, -0.30833333333333335, -0.30833333333333335, -0.30833333333333335, -0.30833333333333335, -0.30833333333333335, -0.30833333333333335, -0.30833333333333335, -0.30833333333333335, -0.30833333333333335, -0.30833333333333335, -0.30833333333333335, -0.30833333333333335, -0.30833333333333335, -0.30833333333333335, -0.30833333333333335, -0.30833333333333335, -0.30833333333333335, -0.30833333333333335, -0.30833333333333335, -0.30833333333333335, -0.30833333333333335, -0.30833333333333335, -0.30833333333333335, -0.30833333333333335, -0.30833333333333335, -0.30833333333333335, -0.30833333333333335, -0.30833333333333335, -0.30833333333333335, -0.30833333333333335, -0.30833333333333335, -0.30833333333333335, -0.30833333333333335, -0.30833333333333335, -0.30833333333333335, -0.30833333333333335, -0.30833333333333335, -0.30833333333333335, -0.30833333333333335, -0.30833333333333335, -0.30833333333333335, -0.30833333333333335, -0.30833333333333335, -0.30833333333333335, -0.30833333333333335, -0.30833333333333335, -0.30833333333333335, -0.30833333333333335, -0.30833333333333335, -0.30833333333333335, -0.30833333333333335, -0.30833333333333335, -0.30833333333333335, -0.30833333333333335, -0.30833333333333335, -0.30833333333333335, -0.30833333333333335, -0.30833333333333335, -0.30833333333333335, -0.30833333333333335, -0.30833333333333335, -0.30833333333333335, -0.30833333333333335, -0.30833333333333335, -0.30833333333333335, -0.30833333333333335, -0.30833333333333335, -0.30833333333333335, -0.30833333333333335, -0.30833333333333335, -0.30833333333333335, -0.30833333333333335, -0.30833333333333335, -0.30833333333333335, -0.30833333333333335, -0.30833333333333335, -0.30833333333333335, -0.30833333333333335, -0.30833333333333335, -0.30833333333333335, -0.30833333333333335, -0.30833333333333335, -0.30833333333333335, -0.30833333333333335, -0.30833333333333335, -0.30833333333333335, -0.30833333333333335, -0.30833333333333335, -0.30833333333333335, -0.30833333333333335, -0.30833333333333335, -0.30833333333333335, -0.30833333333333335, -0.30833333333333335, -0.30833333333333335, -0.30833333333333335, -0.30833333333333335, -0.30833333333333335, -0.30833333333333335, -0.30833333333333335, -0.30833333333333335, -0.30833333333333335, -0.30833333333333335, -0.30833333333333335, -0.30833333333333335, -0.30833333333333335, -0.30833333333333335, -0.30833333333333335, -0.30833333333333335, -0.30833333333333335, -0.30833333333333335, -0.30833333333333335, -0.30833333333333335, -0.30833333333333335, -0.30833333333333335, -0.30833333333333335, -0.30833333333333335, -0.30833333333333335, -0.30833333333333335, -0.30833333333333335, -0.30833333333333335, -0.30833333333333335, -0.30833333333333335, -0.30833333333333335, -0.30833333333333335, -0.30833333333333335, -0.30833333333333335, -0.30833333333333335, -0.30833333333333335, -0.30833333333333335, -0.30833333333333335, -0.30833333333333335, -0.30833333333333335, -0.30833333333333335, -0.30833333333333335, -0.30833333333333335, -0.30833333333333335, -0.30833333333333335, -0.30833333333333335, -0.30833333333333335, -0.30833333333333335, -0.30833333333333335, -0.30833333333333335, -0.30833333333333335, -0.30833333333333335, -0.30833333333333335, -0.30833333333333335, -0.30833333333333335, -0.30833333333333335, -0.30833333333333335, -0.30833333333333335, -0.30833333333333335, -0.30833333333333335, -0.30833333333333335, -0.30833333333333335, -0.30833333333333335, -0.30833333333333335, -0.30833333333333335, -0.30833333333333335, -0.30833333333333335, -0.30833333333333335, -0.30833333333333335, -0.30833333333333335, -0.3055555555555556, -0.2986111111111111, -0.2916666666666667, -0.28194444444444444, -0.2722222222222222, -0.25972222222222224, -0.21805555555555556, -0.13055555555555556, -0.030555555555555555, 0.10833333333333334, 0.18888888888888888, 0.25972222222222224, 0.32916666666666666, 0.38333333333333336, 0.41944444444444445, 0.4375, 0.4513888888888889, 0.4652777777777778, 0.4791666666666667, 0.49166666666666664, 0.5111111111111111, 0.5666666666666667, 0.6180555555555556, 0.6569444444444444, 0.6833333333333333, 0.7027777777777777, 0.7236111111111111, 0.7472222222222222, 0.7638888888888888, 0.7736111111111111, 0.7805555555555556, 0.7805555555555556, 0.7805555555555556, 0.7805555555555556, 0.7805555555555556, 0.7805555555555556, 0.7805555555555556, 0.7805555555555556, 0.7805555555555556, 0.7805555555555556, 0.7805555555555556, 0.7805555555555556, 0.7805555555555556, 0.7805555555555556, 0.7805555555555556]","[-0.8222222222222222, -0.8222222222222222, -0.8222222222222222, -0.8222222222222222, -0.8222222222222222, -0.8222222222222222, -0.8222222222222222, -0.8222222222222222, -0.8222222222222222, -0.8222222222222222, -0.8222222222222222, -0.8222222222222222, -0.8222222222222222, -0.8222222222222222, -0.8222222222222222, -0.8222222222222222, -0.8222222222222222, -0.8222222222222222, -0.8222222222222222, -0.8222222222222222, -0.8222222222222222, -0.8222222222222222, -0.8222222222222222, -0.8222222222222222, -0.8222222222222222, -0.8222222222222222, -0.8222222222222222, -0.8222222222222222, -0.8222222222222222, -0.8222222222222222, -0.8222222222222222, -0.8222222222222222, -0.8222222222222222, -0.8222222222222222, -0.8222222222222222, -0.8222222222222222, -0.8222222222222222, -0.8222222222222222, -0.8222222222222222, -0.8222222222222222, -0.8222222222222222, -0.8222222222222222, -0.8222222222222222, -0.8222222222222222, -0.8222222222222222, -0.8222222222222222, -0.8222222222222222, -0.8222222222222222, -0.8222222222222222, -0.8222222222222222, -0.8222222222222222, -0.8222222222222222, -0.8222222222222222, -0.8222222222222222, -0.8222222222222222, -0.8222222222222222, -0.8222222222222222, -0.8222222222222222, -0.8222222222222222, -0.8222222222222222, -0.8222222222222222, -0.8222222222222222, -0.8222222222222222, -0.8222222222222222, -0.8222222222222222, -0.8222222222222222, -0.8222222222222222, -0.8222222222222222, -0.8222222222222222, -0.8222222222222222, -0.8222222222222222, -0.8222222222222222, -0.8222222222222222, -0.8222222222222222, -0.8222222222222222, -0.8222222222222222, -0.8222222222222222, -0.8222222222222222, -0.8222222222222222, -0.8222222222222222, -0.8222222222222222, -0.8222222222222222, -0.8222222222222222, -0.8222222222222222, -0.8222222222222222, -0.8222222222222222, -0.8222222222222222, -0.8222222222222222, -0.8222222222222222, -0.8222222222222222, -0.8222222222222222, -0.8222222222222222, -0.8222222222222222, -0.8222222222222222, -0.8222222222222222, -0.8197530864197531, -0.8074074074074075, -0.7851851851851852, -0.7679012345679013, -0.7530864197530864, -0.7358024691358025, -0.7086419753086419, -0.691358024691358, -0.6765432098765433, -0.6641975308641975, -0.6444444444444445, -0.6345679012345679, -0.6296296296296297, -0.6246913580246913, -0.6246913580246913, -0.6246913580246913, -0.6246913580246913, -0.6246913580246913, -0.6246913580246913, -0.6246913580246913, -0.6246913580246913, -0.6246913580246913, -0.6246913580246913, -0.6246913580246913, -0.6246913580246913, -0.6246913580246913, -0.6246913580246913, -0.6246913580246913, -0.6246913580246913, -0.6246913580246913, -0.6246913580246913, -0.6246913580246913, -0.6246913580246913, -0.6246913580246913, -0.6246913580246913, -0.6246913580246913, -0.6246913580246913, -0.6246913580246913, -0.6246913580246913, -0.6246913580246913, -0.6246913580246913, -0.6246913580246913, -0.6246913580246913, -0.6246913580246913, -0.6246913580246913, -0.6246913580246913, -0.6246913580246913, -0.6246913580246913, -0.6246913580246913, -0.6172839506172839, -0.6172839506172839, -0.6172839506172839, -0.6172839506172839, -0.6172839506172839, -0.6172839506172839, -0.6172839506172839, -0.6172839506172839, -0.6172839506172839, -0.6172839506172839, -0.6172839506172839, -0.6172839506172839, -0.6172839506172839, -0.6172839506172839, -0.6172839506172839, -0.6172839506172839, -0.6172839506172839, -0.6172839506172839, -0.6172839506172839, -0.6172839506172839, -0.6172839506172839, -0.6172839506172839, -0.6172839506172839, -0.6172839506172839, -0.6172839506172839, -0.6172839506172839, -0.6172839506172839, -0.6172839506172839, -0.6172839506172839, -0.6172839506172839, -0.6172839506172839, -0.6172839506172839, -0.6172839506172839, -0.6172839506172839, -0.6172839506172839, -0.6172839506172839, -0.6172839506172839, -0.6172839506172839, -0.6172839506172839, -0.6172839506172839, -0.6172839506172839, -0.6172839506172839, -0.6172839506172839, -0.6172839506172839, -0.6172839506172839, -0.6172839506172839, -0.6172839506172839, -0.6172839506172839, -0.6172839506172839, -0.6172839506172839, -0.6172839506172839, -0.6172839506172839, -0.6172839506172839, -0.6172839506172839, -0.6172839506172839, -0.6172839506172839, -0.6172839506172839, -0.6172839506172839, -0.6148148148148148, -0.6148148148148148, -0.6148148148148148, -0.6148148148148148, -0.6148148148148148, -0.6148148148148148, -0.6148148148148148, -0.6148148148148148, -0.6148148148148148, -0.6148148148148148, -0.6148148148148148, -0.6148148148148148, -0.6148148148148148, -0.6148148148148148, -0.6148148148148148, -0.6148148148148148, -0.6148148148148148, -0.6148148148148148, -0.6148148148148148, -0.6148148148148148, -0.6148148148148148, -0.6148148148148148, -0.6148148148148148, -0.6148148148148148, -0.6148148148148148, -0.6148148148148148, -0.6148148148148148, -0.6148148148148148, -0.6148148148148148, -0.6148148148148148, -0.6148148148148148, -0.6148148148148148, -0.6148148148148148, -0.6148148148148148, -0.6148148148148148, -0.6148148148148148, -0.6148148148148148, -0.6148148148148148, -0.6148148148148148, -0.6148148148148148, -0.6148148148148148, -0.6148148148148148, -0.6148148148148148, -0.6148148148148148, -0.6148148148148148, -0.6148148148148148, -0.6148148148148148, -0.6148148148148148, -0.6148148148148148, -0.6148148148148148, -0.6148148148148148, -0.6148148148148148, -0.6148148148148148, -0.6148148148148148, -0.6148148148148148, -0.6148148148148148, -0.6148148148148148, -0.6148148148148148, -0.6148148148148148, -0.6148148148148148, -0.6148148148148148, -0.6148148148148148, -0.6148148148148148, -0.6148148148148148, -0.6148148148148148, -0.6148148148148148, -0.6148148148148148, -0.6148148148148148, -0.6148148148148148, -0.6148148148148148, -0.6148148148148148, -0.6148148148148148, -0.6148148148148148, -0.6148148148148148, -0.6148148148148148, -0.6148148148148148, -0.6148148148148148, -0.6148148148148148, -0.6148148148148148, -0.6148148148148148, -0.6148148148148148, -0.6148148148148148, -0.6148148148148148, -0.6148148148148148, -0.6148148148148148, -0.6148148148148148, -0.6148148148148148, -0.6148148148148148, -0.6148148148148148, -0.6148148148148148, -0.6148148148148148, -0.6148148148148148, -0.6148148148148148, -0.6148148148148148, -0.6148148148148148, -0.6148148148148148, -0.6148148148148148, -0.6148148148148148, -0.6148148148148148, -0.6148148148148148, -0.6148148148148148, -0.6148148148148148, -0.6148148148148148, -0.6148148148148148, -0.6148148148148148, -0.6148148148148148, -0.6148148148148148, -0.6148148148148148, -0.6148148148148148, -0.6148148148148148, -0.6148148148148148, -0.6148148148148148, -0.6148148148148148, -0.6148148148148148, -0.6148148148148148, -0.6148148148148148, -0.6148148148148148, -0.6148148148148148, -0.6148148148148148, -0.6148148148148148, -0.6148148148148148, -0.6148148148148148, -0.6148148148148148, -0.6148148148148148, -0.6148148148148148, -0.6148148148148148, -0.6148148148148148, -0.6148148148148148, -0.6148148148148148, -0.6123456790123457, -0.5654320987654321, -0.49876543209876545, -0.38765432098765434, -0.2765432098765432, -0.1925925925925926, -0.11604938271604938, -0.04197530864197531, 0.0024691358024691358, 0.03950617283950617, 0.07654320987654321, 0.1382716049382716, 0.20246913580246914, 0.2839506172839506, 0.30864197530864196, 0.3333333333333333, 0.35802469135802467, 0.3925925925925926, 0.43703703703703706, 0.45185185185185184, 0.4617283950617284, 0.4691358024691358, 0.48641975308641977, 0.5012345679012346, 0.5185185185185185, 0.5382716049382716, 0.5555555555555556, 0.5728395061728395, 0.5753086419753086, 0.5851851851851851, 0.6, 0.6049382716049383, 0.6098765432098765, 0.6222222222222222, 0.6370370370370371, 0.654320987654321, 0.6814814814814815, 0.6938271604938272, 0.7086419753086419, 0.7308641975308642, 0.7506172839506173, 0.7580246913580246, 0.7580246913580246, 0.7580246913580246, 0.7580246913580246, 0.7580246913580246, 0.7580246913580246, 0.7580246913580246, 0.7580246913580246, 0.7580246913580246, 0.7580246913580246, 0.7580246913580246, 0.7580246913580246, 0.7580246913580246, 0.7580246913580246, 0.7580246913580246, 0.7580246913580246, 0.7580246913580246, 0.7580246913580246, 0.7580246913580246, 0.7580246913580246, 0.7580246913580246, 0.7580246913580246, 0.7580246913580246, 0.7580246913580246, 0.7580246913580246, 0.7580246913580246, 0.7580246913580246, 0.7580246913580246, 0.7580246913580246, 0.7580246913580246, 0.7580246913580246, 0.7580246913580246, 0.7580246913580246, 0.7580246913580246, 0.7580246913580246, 0.7580246913580246, 0.7580246913580246, 0.7580246913580246, 0.7580246913580246, 0.7580246913580246, 0.7580246913580246, 0.7580246913580246, 0.7580246913580246, 0.7580246913580246, 0.7580246913580246, 0.7580246913580246, 0.7580246913580246, 0.7580246913580246, 0.7580246913580246, 0.7580246913580246, 0.7580246913580246, 0.7580246913580246, 0.7580246913580246, 0.7580246913580246, 0.7580246913580246, 0.7580246913580246, 0.7580246913580246, 0.7580246913580246, 0.7580246913580246, 0.7580246913580246, 0.7580246913580246, 0.7580246913580246, 0.7580246913580246, 0.7580246913580246, 0.7580246913580246, 0.7580246913580246, 0.7580246913580246, 0.7580246913580246, 0.7580246913580246, 0.7580246913580246, 0.7580246913580246, 0.7580246913580246, 0.7580246913580246, 0.7580246913580246, 0.7580246913580246, 0.7580246913580246, 0.7580246913580246, 0.7580246913580246, 0.7580246913580246, 0.7580246913580246, 0.7580246913580246, 0.7580246913580246, 0.7580246913580246, 0.7580246913580246, 0.7580246913580246, 0.7580246913580246, 0.7580246913580246, 0.7580246913580246, 0.7580246913580246, 0.7580246913580246, 0.7580246913580246, 0.7580246913580246, 0.7580246913580246, 0.7580246913580246, 0.7580246913580246, 0.7580246913580246, 0.7580246913580246, 0.7580246913580246, 0.7580246913580246, 0.7580246913580246, 0.7580246913580246, 0.7580246913580246, 0.7580246913580246, 0.7580246913580246, 0.7580246913580246, 0.7580246913580246, 0.7580246913580246, 0.7580246913580246, 0.7580246913580246, 0.7580246913580246, 0.7580246913580246, 0.7580246913580246, 0.7580246913580246, 0.7580246913580246, 0.7580246913580246, 0.7580246913580246, 0.7580246913580246, 0.7580246913580246, 0.7580246913580246, 0.7580246913580246, 0.7580246913580246, 0.7580246913580246, 0.7580246913580246, 0.7580246913580246, 0.7580246913580246, 0.7580246913580246, 0.7580246913580246, 0.7580246913580246, 0.7580246913580246, 0.7580246913580246, 0.7580246913580246, 0.7580246913580246, 0.7580246913580246, 0.7580246913580246, 0.7580246913580246, 0.7580246913580246, 0.7580246913580246, 0.7580246913580246, 0.7580246913580246, 0.7580246913580246, 0.7580246913580246, 0.7580246913580246, 0.7580246913580246, 0.7580246913580246, 0.7580246913580246, 0.7580246913580246, 0.7580246913580246, 0.7580246913580246, 0.7580246913580246, 0.7580246913580246, 0.7580246913580246, 0.7580246913580246, 0.7580246913580246, 0.7580246913580246, 0.7580246913580246, 0.7580246913580246, 0.7580246913580246, 0.7580246913580246, 0.7580246913580246, 0.7580246913580246, 0.7580246913580246, 0.7580246913580246, 0.7580246913580246, 0.7580246913580246, 0.7580246913580246, 0.7580246913580246, 0.7580246913580246, 0.7580246913580246, 0.7580246913580246, 0.7580246913580246, 0.7580246913580246, 0.7580246913580246, 0.7580246913580246, 0.7580246913580246, 0.7580246913580246, 0.7580246913580246, 0.7580246913580246, 0.7580246913580246, 0.7580246913580246, 0.7580246913580246, 0.7580246913580246, 0.7580246913580246, 0.7580246913580246, 0.7580246913580246, 0.7580246913580246, 0.7580246913580246, 0.7580246913580246, 0.7580246913580246, 0.7580246913580246, 0.7580246913580246, 0.7580246913580246, 0.7580246913580246, 0.7580246913580246, 0.7580246913580246, 0.7580246913580246, 0.7580246913580246, 0.7580246913580246, 0.7580246913580246, 0.7580246913580246, 0.7580246913580246, 0.7580246913580246, 0.7580246913580246, 0.7580246913580246, 0.7580246913580246, 0.7580246913580246, 0.7580246913580246, 0.7580246913580246, 0.7580246913580246, 0.7580246913580246, 0.7580246913580246, 0.7580246913580246, 0.7580246913580246, 0.7580246913580246, 0.7580246913580246, 0.7580246913580246, 0.7580246913580246, 0.7580246913580246, 0.7580246913580246, 0.7580246913580246, 0.7580246913580246, 0.7580246913580246, 0.7580246913580246, 0.7580246913580246, 0.7580246913580246, 0.7580246913580246, 0.7580246913580246, 0.7580246913580246, 0.7580246913580246, 0.7580246913580246, 0.7580246913580246, 0.7580246913580246, 0.7580246913580246, 0.7580246913580246, 0.7580246913580246, 0.7580246913580246, 0.7580246913580246, 0.7580246913580246, 0.7580246913580246, 0.7580246913580246, 0.7580246913580246, 0.7580246913580246, 0.7580246913580246, 0.7580246913580246, 0.7580246913580246, 0.7580246913580246, 0.7580246913580246, 0.7580246913580246, 0.7580246913580246, 0.7580246913580246, 0.7580246913580246, 0.7580246913580246, 0.7580246913580246, 0.7580246913580246, 0.7580246913580246, 0.7580246913580246, 0.7580246913580246, 0.7580246913580246, 0.7580246913580246, 0.7580246913580246, 0.7580246913580246, 0.7580246913580246, 0.7580246913580246, 0.7580246913580246, 0.7580246913580246, 0.7580246913580246, 0.7580246913580246, 0.7580246913580246, 0.7580246913580246, 0.7580246913580246, 0.7580246913580246, 0.7580246913580246, 0.7580246913580246, 0.7580246913580246, 0.7580246913580246, 0.7580246913580246, 0.7580246913580246, 0.7580246913580246, 0.7580246913580246, 0.7580246913580246, 0.7580246913580246, 0.7580246913580246, 0.7580246913580246, 0.7580246913580246, 0.7580246913580246, 0.7580246913580246, 0.7580246913580246, 0.7580246913580246, 0.7580246913580246, 0.7580246913580246, 0.7580246913580246, 0.7580246913580246, 0.7580246913580246, 0.7580246913580246, 0.7580246913580246, 0.7580246913580246, 0.7580246913580246, 0.7580246913580246, 0.7580246913580246, 0.7580246913580246, 0.7580246913580246, 0.7580246913580246, 0.7580246913580246, 0.7580246913580246, 0.7580246913580246, 0.7580246913580246, 0.7580246913580246, 0.7580246913580246, 0.7580246913580246, 0.7580246913580246, 0.7580246913580246, 0.7580246913580246, 0.7580246913580246, 0.7580246913580246, 0.7580246913580246, 0.7580246913580246, 0.7580246913580246, 0.7580246913580246, 0.7580246913580246, 0.7580246913580246, 0.7580246913580246, 0.7580246913580246, 0.7580246913580246, 0.7580246913580246, 0.7580246913580246, 0.7580246913580246, 0.7580246913580246, 0.7580246913580246, 0.7580246913580246, 0.7580246913580246, 0.7580246913580246, 0.7580246913580246, 0.7580246913580246, 0.7580246913580246, 0.7580246913580246, 0.7580246913580246, 0.7580246913580246, 0.7580246913580246, 0.7580246913580246, 0.7580246913580246, 0.7580246913580246, 0.7580246913580246, 0.7580246913580246, 0.7580246913580246, 0.7580246913580246, 0.7580246913580246, 0.7580246913580246, 0.7580246913580246, 0.7580246913580246, 0.7580246913580246, 0.7580246913580246, 0.7580246913580246, 0.7580246913580246, 0.7580246913580246, 0.7580246913580246, 0.7580246913580246, 0.7580246913580246, 0.7580246913580246, 0.7580246913580246, 0.7580246913580246, 0.7580246913580246, 0.7580246913580246, 0.7580246913580246, 0.7580246913580246, 0.7580246913580246, 0.7580246913580246, 0.7580246913580246, 0.7580246913580246, 0.7580246913580246, 0.7580246913580246, 0.7580246913580246, 0.7580246913580246, 0.7580246913580246, 0.7580246913580246, 0.7580246913580246, 0.7580246913580246, 0.7580246913580246, 0.7580246913580246, 0.7580246913580246, 0.7580246913580246, 0.7580246913580246, 0.7580246913580246, 0.7580246913580246, 0.7580246913580246, 0.7580246913580246, 0.7580246913580246, 0.7580246913580246, 0.7580246913580246, 0.7580246913580246, 0.7580246913580246, 0.7580246913580246, 0.7580246913580246, 0.7580246913580246, 0.7580246913580246, 0.7580246913580246, 0.7580246913580246, 0.7580246913580246, 0.7580246913580246, 0.7580246913580246, 0.7580246913580246, 0.7580246913580246, 0.7580246913580246, 0.7580246913580246, 0.7580246913580246, 0.7580246913580246, 0.7580246913580246, 0.7580246913580246, 0.7580246913580246, 0.7580246913580246, 0.7580246913580246, 0.7580246913580246, 0.7580246913580246, 0.7580246913580246, 0.7580246913580246, 0.7580246913580246, 0.7580246913580246, 0.7580246913580246, 0.7580246913580246, 0.7580246913580246, 0.7580246913580246, 0.7580246913580246, 0.7580246913580246, 0.7580246913580246, 0.7580246913580246, 0.7580246913580246, 0.7580246913580246, 0.7580246913580246, 0.7580246913580246, 0.7580246913580246, 0.7580246913580246, 0.7580246913580246, 0.7580246913580246, 0.7580246913580246, 0.7580246913580246, 0.7580246913580246, 0.7580246913580246, 0.7580246913580246, 0.7580246913580246, 0.7580246913580246, 0.7580246913580246, 0.7580246913580246, 0.7580246913580246, 0.7580246913580246, 0.7580246913580246, 0.7580246913580246, 0.7580246913580246, 0.7580246913580246, 0.7580246913580246, 0.7580246913580246, 0.7580246913580246, 0.7580246913580246, 0.7580246913580246, 0.7580246913580246, 0.7580246913580246, 0.7580246913580246, 0.7580246913580246, 0.7580246913580246, 0.7580246913580246, 0.7580246913580246, 0.7580246913580246, 0.7580246913580246, 0.7580246913580246, 0.7580246913580246, 0.7580246913580246, 0.7580246913580246, 0.7580246913580246, 0.7580246913580246, 0.7580246913580246, 0.7580246913580246, 0.7580246913580246, 0.7580246913580246, 0.7580246913580246, 0.7580246913580246, 0.7580246913580246, 0.7580246913580246, 0.7580246913580246, 0.7580246913580246, 0.7580246913580246, 0.7580246913580246, 0.7580246913580246, 0.7580246913580246, 0.7580246913580246, 0.7580246913580246, 0.7580246913580246, 0.7580246913580246, 0.7580246913580246, 0.7580246913580246, 0.7580246913580246, 0.7580246913580246, 0.7580246913580246, 0.7580246913580246, 0.7580246913580246, 0.7580246913580246, 0.7580246913580246, 0.7580246913580246, 0.7580246913580246, 0.7580246913580246, 0.7580246913580246, 0.7580246913580246, 0.7580246913580246, 0.7580246913580246, 0.7580246913580246, 0.7580246913580246, 0.7580246913580246, 0.7580246913580246, 0.7580246913580246, 0.7580246913580246, 0.7580246913580246, 0.7580246913580246, 0.7580246913580246, 0.7580246913580246, 0.7580246913580246, 0.7580246913580246, 0.7580246913580246, 0.7580246913580246, 0.7580246913580246, 0.7580246913580246, 0.7580246913580246, 0.7580246913580246, 0.7580246913580246, 0.7580246913580246, 0.7580246913580246, 0.7580246913580246, 0.7580246913580246, 0.7580246913580246, 0.7580246913580246, 0.7580246913580246, 0.7580246913580246, 0.7580246913580246, 0.7580246913580246, 0.7580246913580246, 0.7580246913580246, 0.7580246913580246, 0.7580246913580246, 0.7580246913580246, 0.7580246913580246, 0.7580246913580246, 0.7580246913580246, 0.7580246913580246, 0.7580246913580246, 0.7580246913580246, 0.7580246913580246, 0.7580246913580246, 0.7580246913580246, 0.7580246913580246, 0.7580246913580246, 0.7580246913580246, 0.7580246913580246, 0.7580246913580246, 0.7580246913580246, 0.7580246913580246, 0.7580246913580246, 0.7580246913580246, 0.7580246913580246, 0.7580246913580246, 0.7580246913580246, 0.7580246913580246, 0.7580246913580246, 0.7580246913580246, 0.7580246913580246, 0.7580246913580246, 0.7580246913580246, 0.7580246913580246, 0.7580246913580246, 0.7580246913580246, 0.7580246913580246, 0.7580246913580246, 0.7580246913580246, 0.7580246913580246, 0.7580246913580246, 0.7580246913580246, 0.7580246913580246, 0.7580246913580246, 0.7580246913580246, 0.7580246913580246, 0.7580246913580246, 0.7580246913580246, 0.7580246913580246, 0.7580246913580246, 0.7580246913580246, 0.7580246913580246, 0.7580246913580246, 0.7580246913580246, 0.7580246913580246, 0.7580246913580246, 0.7580246913580246, 0.7580246913580246, 0.7580246913580246, 0.7580246913580246, 0.7580246913580246, 0.7580246913580246, 0.7580246913580246, 0.7580246913580246, 0.7580246913580246, 0.7580246913580246, 0.7580246913580246, 0.7580246913580246, 0.7580246913580246, 0.7580246913580246, 0.7580246913580246, 0.7580246913580246, 0.7580246913580246, 0.7580246913580246, 0.7580246913580246, 0.7580246913580246, 0.7580246913580246, 0.7580246913580246, 0.7580246913580246, 0.7580246913580246, 0.7580246913580246, 0.7580246913580246, 0.7580246913580246, 0.7580246913580246, 0.7580246913580246, 0.7580246913580246, 0.7580246913580246, 0.7580246913580246, 0.7580246913580246, 0.7580246913580246, 0.7580246913580246, 0.7580246913580246, 0.7580246913580246, 0.7580246913580246, 0.7580246913580246, 0.7580246913580246, 0.7580246913580246, 0.7580246913580246, 0.7580246913580246, 0.7580246913580246, 0.7580246913580246, 0.7580246913580246, 0.7580246913580246, 0.7580246913580246, 0.7580246913580246, 0.7580246913580246, 0.7580246913580246, 0.7580246913580246, 0.7580246913580246, 0.7580246913580246, 0.7580246913580246, 0.7580246913580246, 0.7382716049382716, 0.7160493827160493, 0.6938271604938272, 0.6666666666666666, 0.6444444444444445, 0.6172839506172839, 0.5407407407407407, 0.4024691358024691, 0.23950617283950618, 0.03209876543209877, -0.08641975308641975, -0.18271604938271604, -0.2641975308641975, -0.31851851851851853, -0.35802469135802467, -0.37530864197530867, -0.3925925925925926, -0.4123456790123457, -0.42962962962962964, -0.44938271604938274, -0.4740740740740741, -0.5580246913580247, -0.6320987654320988, -0.6864197530864198, -0.7160493827160493, -0.7407407407407407, -0.7654320987654321, -0.7901234567901234, -0.8098765432098766, -0.817283950617284, -0.817283950617284, -0.817283950617284, -0.817283950617284, -0.817283950617284, -0.817283950617284, -0.817283950617284, -0.817283950617284, -0.817283950617284, -0.817283950617284, -0.817283950617284, -0.817283950617284, -0.817283950617284, -0.817283950617284, -0.817283950617284, -0.817283950617284]","[1, 1, 1, 1, 1, 1, 1, 0, 0, 0, 0, 0, 0, 0, 0, 0, 0, 0, 0, 0, 0, 0, 0, 0, 0, 0, 0, 0, 0, 0, 0, 0, 0, 0, 0, 0, 0, 0, 0, 0, 0, 0, 0, 0, 0, 0, 0, 0, 0, 0, 0, 0, 0, 0, 0, 0, 0, 0, 0, 0, 0, 0, 0, 0, 0, 0, 0, 0, 0, 0, 0, 0, 0, 0, 0, 0, 0, 0, 0, 0, 0, 0, 0, 0, 0, 0, 0, 0, 0, 0, 0, 0, 0, 0, 0, 0, 0, 0, 0, 0, 0, 0, 0, 0, 0, 0, 0, 0, 0, 0, 0, 0, 0, 0, 0, 0, 0, 0, 0, 0, 0, 0, 0, 0, 0, 0, 0, 0, 0, 0, 0, 0, 0, 0, 0, 0, 0, 0, 0, 0, 0, 0, 0, 0, 0, 0, 0, 0, 0, 0, 0, 0, 0, 0, 0, 0, 0, 0, 0, 0, 0, 0, 0, 0, 0, 0, 0, 0, 0, 0, 0, 0, 0, 0, 0, 0, 0, 0, 0, 0, 0, 0, 0, 0, 0, 0, 0, 0, 0, 0, 0, 0, 0, 0, 0, 0, 0, 0, 0, 0, 0, 0, 0, 0, 0, 0, 0, 0, 0, 0, 0, 0, 0, 0, 0, 0, 0, 0, 0, 0, 0, 0, 0, 0, 0, 0, 0, 0, 0, 0, 0, 0, 0, 0, 0, 0, 0, 0, 0, 0, 0, 0, 0, 0, 0, 0, 0, 0, 0, 0, 0, 0, 0, 0, 0, 0, 0, 0, 0, 0, 0, 0, 0, 0, 0, 0, 0, 0, 0, 0, 0, 0, 0, 0, 0, 0, 0, 0, 0, 0, 0, 0, 0, 0, 0, 0, 0, 0, 0, 0, 0, 0, 0, 0, 0, 0, 0, 0, 0, 0, 0, 0, 0, 0, 0, 0, 0, 0, 0, 0, 0, 0, 0, 0, 0, 0, 0, 0, 0, 0, 0, 0, 0, 0, 0, 0, 0, 0, 0, 0, 0, 0, 0, 0, 0, 0, 0, 0, 0, 0, 0, 0, 0, 0, 0, 0, 0, 0, 0, 0, 0, 0, 0, 0, 0, 0, 0, 0, 0, 0, 0, 0, 0, 0, 0, 0, 0, 0, 0, 0, 0, 0, 0, 0, 0, 0, 0, 0, 0, 0, 0, 0, 0, 0, 0, 0, 0, 0, 0, 0, 0, 0, 0, 0, 0, 0, 0, 0, 0, 0, 0, 0, 0, 0, 0, 0, 0, 0, 0, 0, 0, 0, 0, 0, 0, 0, 0, 0, 0, 0, 0, 0, 0, 0, 0, 0, 0, 0, 0, 0, 0, 0, 0, 0, 0, 0, 0, 0, 0, 0, 0, 0, 0, 0, 0, 0, 0, 0, 0, 0, 0, 0, 0, 0, 0, 0, 0, 0, 0, 0, 0, 0, 0, 0, 0, 0, 0, 0, 0, 0, 0, 0, 0, 0, 0, 0, 0, 0, 0, 0, 0, 0, 0, 0, 0, 0, 0, 0, 0, 0, 0, 0, 0, 0, 0, 0, 0, 0, 0, 0, 0, 0, 0, 0, 0, 0, 0, 0, 0, 0, 0, 0, 0, 0, 0, 0, 0, 0, 0, 0, 0, 0, 0, 0, 0, 0, 0, 0, 0, 0, 0, 0, 0, 0, 0, 0, 0, 0, 0, 0, 0, 0, 0, 0, 0, 0, 0, 0, 0, 0, 0, 0, 0, 0, 0, 0, 0, 0, 0, 0, 0, 0, 0, 0, 0, 0, 0, 0, 0, 0, 0, 0, 0, 0, 0, 0, 0, 0, 0, 0, 0, 0, 0, 0, 0, 0, 0, 0, 0, 0, 0, 0, 0, 0, 0, 0, 0, 0, 0, 0, 0, 0, 0, 0, 0, 0, 0, 0, 0, 0, 0, 0, 0, 0, 0, 0, 0, 0, 0, 0, 0, 0, 0, 0, 0, 0, 0, 0, 0, 0, 0, 0, 0, 0, 0, 0, 0, 0, 0, 0, 0, 0, 0, 0, 0, 0, 0, 0, 0, 0, 0, 0, 0, 0, 0, 0, 0, 0, 0, 0, 0, 0, 0, 0, 0, 0, 0, 0, 0, 0, 0, 0, 0, 0, 0, 0, 0, 0, 0, 0, 0, 0, 0, 0, 0, 0, 0, 0, 0, 0, 0, 0, 0, 0, 0, 0, 0, 0, 0, 0, 0, 0, 0, 0, 0, 0, 0, 0, 0, 0, 0, 0, 0, 0, 0, 0, 0, 0, 0, 0, 0, 0, 0, 0, 0, 0, 0, 0, 0, 0, 0, 0, 0, 0, 0, 0, 0, 0, 0, 0, 0, 0, 0, 0, 0, 0, 0, 0, 0, 0, 0, 0, 0, 0, 0, 0, 0, 0, 0, 0, 0, 0, 0, 0, 0, 0, 0, 0, 0, 0, 0, 0, 0, 0, 0, 0, 0, 0, 0, 0, 0, 0, 0, 0, 0, 0, 0, 0, 0, 0, 0, 0, 0, 0, 0, 0, 0, 0, 0, 0, 0, 0, 0, 0, 0, 0, 0, 0, 0, 0, 0, 0, 0, 0, 0, 0, 0, 0, 0, 0, 0, 0, 0, 0, 0, 0, 0, 0, 0, 0, 0, 0, 0, 0, 0, 0, 0, 0, 0, 0, 0, 0, 0, 0, 0, 0, 0, 0, 0, 0, 0, 0, 0, 0, 0, 0, 0, 0, 0, 0, 0, 0, 0, 0, 0, 0, 0, 0, 0, 0, 0, 0, 0, 0, 0, 0, 0, 0, 0, 0, 0, 0, 0, 0, 0, 0, 0, 0, 0, 0, 0, 0, 0, 0, 0, 0, 0, 0, 0, 0, 0, 0, 0, 0, 0, 0, 0, 0, 0, 0, 0, 0, 0, 0, 0, 0, 0, 0, 0, 0, 0, 0, 0, 0, 0, 0, 0, 0, 0, 0, 0, 0, 0, 0, 0, 0, 0, 0, 0, 0, 0, 0, 0, 0, 0, 0, 0, 0, 0, 0, 0, 0, 0, 0, 0, 0, 0, 0, 0, 0, 0, 0, 0, 0, 0, 0, 0, 0, 0, 0, 0, 0, 0, 0, 0, 0, 0, 0, 0, 0, 0, 0, 0, 0, 0, 0, 0, 0, 0, 0, 0, 0, 0, 0, 0, 0, 0, 0, 0, 0, 0, 0, 0, 0, 0, 0, 0, 0, 0, 0, 0, 0, 0, 0, 0, 0, 0, 0, 0, 0, 0, 0, 0, 0, 0, 0, 0, 0, 0, 0, 0, 0, 0, 0, 0, 0, 0, 0, 0, 0, 0, 0, 0, 0, 0, 0, 0, 0, 0, 0, 0, 0, 0, 0, 0, 0, 1]","[0, 0, 0, 0, 0, 0, 0, 0, 0, 0, 0, 0, 0, 0, 0, 0, 0, 0, 0, 0, 0, 0, 0, 0, 0, 0, 0, 0, 0, 0, 0, 0, 0, 0, 0, 0, 0, 0, 0, 0, 0, 0, 0, 0, 0, 0, 0, 0, 0, 0, 0, 0, 0, 0, 0, 0, 0, 0, 0, 0, 0, 0, 0, 0, 0, 0, 0, 0, 0, 0, 0, 0, 0, 0, 0, 0, 0, 0, 0, 0, 0, 0, 0, 0, 0, 0, 0, 0, 0, 0, 0, 0, 0, 0, 0, 0, 0, 0, 0, 0, 0, 0, 0, 0, 0, 0, 0, 0, 0, 0, 0, 0, 0, 0, 0, 0, 0, 0, 0, 0, 0, 0, 0, 0, 0, 0, 0, 0, 0, 0, 0, 0, 0, 0, 0, 0, 0, 0, 0, 0, 0, 0, 0, 0, 0, 0, 0, 0, 0, 0, 0, 0, 0, 0, 0, 0, 0, 0, 0, 0, 0, 0, 0, 0, 0, 0, 0, 0, 0, 0, 0, 0, 0, 0, 0, 0, 0, 0, 0, 0, 0, 0, 0, 0, 0, 0, 0, 0, 0, 0, 0, 0, 0, 0, 0, 0, 0, 0, 0, 0, 0, 0, 0, 0, 0, 0, 0, 0, 0, 0, 0, 0, 0, 0, 0, 0, 0, 0, 0, 0, 0, 0, 0, 0, 0, 0, 0, 0, 0, 0, 0, 0, 0, 0, 0, 0, 0, 0, 0, 0, 0, 0, 0, 0, 0, 0, 0, 0, 0, 0, 0, 0, 0, 0, 0, 0, 0, 0, 0, 0, 0, 0, 0, 0, 0, 0, 0, 0, 0, 0, 0, 0, 0, 0, 0, 0, 0, 0, 0, 0, 0, 0, 0, 0, 0, 0, 0, 0, 0, 0, 0, 0, 0, 0, 0, 0, 0, 0, 0, 0, 0, 0, 0, 0, 0, 0, 0, 0, 0, 0, 0, 0, 0, 0, 0, 0, 0, 0, 0, 0, 0, 0, 0, 0, 0, 0, 0, 0, 0, 0, 0, 0, 0, 0, 0, 0, 0, 0, 0, 0, 0, 0, 0, 0, 0, 0, 0, 0, 0, 0, 0, 0, 0, 0, 0, 0, 0, 0, 0, 0, 0, 0, 0, 0, 0, 0, 0, 0, 0, 0, 0, 0, 0, 0, 0, 0, 0, 0, 0, 0, 0, 0, 0, 0, 0, 0, 0, 0, 0, 0, 0, 0, 0, 0, 0, 0, 0, 0, 0, 0, 0, 0, 0, 0, 0, 0, 0, 0, 0, 0, 0, 0, 0, 0, 0, 0, 0, 0, 0, 0, 0, 0, 0, 0, 0, 0, 0, 0, 0, 0, 0, 0, 0, 0, 0, 0, 0, 0, 0, 0, 0, 0, 0, 0, 0, 0, 0, 0, 0, 0, 0, 0, 0, 0, 0, 0, 0, 0, 0, 0, 0, 0, 0, 0, 0, 0, 0, 0, 0, 0, 0, 0, 0, 0, 0, 0, 0, 0, 0, 0, 0, 0, 0, 0, 0, 0, 0, 0, 0, 0, 0, 0, 0, 0, 0, 0, 0, 0, 0, 0, 0, 0, 0, 0, 0, 0, 0, 0, 0, 0, 0, 0, 0, 0, 0, 0, 0, 0, 0, 0, 0, 0, 0, 0, 0, 0, 0, 0, 0, 0, 0, 0, 0, 0, 0, 0, 0, 0, 0, 0, 0, 0, 0, 0, 0, 0, 0, 0, 0, 0, 0, 0, 0, 0, 0, 0, 0, 0, 0, 0, 0, 0, 0, 0, 0, 0, 0, 0, 0, 0, 0, 0, 0, 0, 0, 0, 0, 0, 0, 0, 0, 0, 0, 0, 0, 0, 0, 0, 0, 0, 0, 0, 0, 0, 0, 0, 0, 0, 0, 0, 0, 0, 0, 0, 0, 0, 0, 0, 0, 0, 0, 0, 0, 0, 0, 0, 0, 0, 0, 0, 0, 0, 0, 0, 0, 0, 0, 0, 0, 0, 0, 0, 0, 0, 0, 0, 0, 0, 0, 0, 0, 0, 0, 0, 0, 0, 0, 0, 0, 0, 0, 0, 0, 0, 0, 0, 0, 0, 0, 0, 0, 0, 0, 0, 0, 0, 0, 0, 0, 0, 0, 0, 0, 0, 0, 0, 0, 0, 0, 0, 0, 0, 0, 0, 0, 0, 0, 0, 0, 0, 0, 0, 0, 0, 0, 0, 0, 0, 0, 0, 0, 0, 0, 0, 0, 0, 0, 0, 0, 0, 0, 0, 0, 0, 0, 0, 0, 0, 0, 0, 0, 0, 0, 0, 0, 0, 0, 0, 0, 0, 0, 0, 0, 0, 0, 0, 0, 0, 0, 0, 0, 0, 0, 0, 0, 0, 0, 0, 0, 0, 0, 0, 0, 0, 0, 0, 0, 0, 0, 0, 0, 0, 0, 0, 0, 0, 0, 0, 0, 0, 0, 0, 0, 0, 0, 0, 0, 0, 0, 0, 0, 0, 0, 0, 0, 0, 0, 0, 0, 0, 0, 0, 0, 0, 0, 0, 0, 0, 0, 0, 0, 0, 0, 0, 0, 0, 0, 0, 0, 0, 0, 0, 0, 0, 0, 0, 0, 0, 0, 0, 0, 0, 0, 0, 0, 0, 0, 0, 0, 0, 0, 0, 0, 0, 0, 0, 0, 0, 0, 0, 0, 0, 0, 0, 0, 0, 0, 0, 0, 0, 0, 0, 0, 0, 0, 0, 0, 0, 0, 0, 0, 0, 0, 0, 0, 0, 0, 0, 0, 0, 0, 0, 0, 0, 0, 0, 0, 0, 0, 0, 0, 0, 0, 0, 0, 0, 0, 0, 0, 0, 0, 0, 0, 0, 0, 0, 0, 0, 0, 0, 0, 0, 0, 0, 0, 0, 0, 0, 0, 0, 0, 0, 0, 0, 0, 0, 0, 0, 0, 0, 0, 0, 0, 0, 0, 0, 0, 0, 0, 0, 0, 0, 0, 0, 0, 0, 0, 0, 0, 0, 0, 0, 0, 0, 0, 0, 0, 0, 0, 0, 0, 0, 0, 0, 0, 0, 0, 0, 0, 0, 0, 0, 0, 0, 0, 0, 0, 0, 0, 0, 0, 0, 0, 0, 0, 0, 0, 0, 0, 0, 0, 0, 0, 0, 0, 0, 0, 0, 0, 0, 0, 0, 0, 0, 0, 0, 0, 0, 0, 0, 0, 0, 0, 0, 0, 0, 0, 0, 0, 0, 0, 0, 0, 0, 0, 0, 0, 0, 0, 0, 0, 0, 0, 0, 0, 0, 0, 0, 0, 0, 0, 0, 0, 0, 0, 0, 0, 0, 0, 0, 0, 0, 0, 0, 0, 0, 0, 0, 0, 0, 0, 0, 0, 0, 0, 0, 0]","[0, 0, 0, 0, 0, 0, 0, 0, 0, 0, 0, 0, 0, 0, 0, 0, 0, 0, 0, 0, 0, 0, 0, 0, 0, 0, 0, 0, 0, 0, 0, 0, 0, 0, 0, 0, 0, 0, 0, 0, 0, 0, 0, 0, 0, 0, 0, 0, 0, 0, 0, 0, 0, 0, 0, 0, 0, 0, 0, 0, 0, 0, 0, 0, 0, 0, 0, 0, 0, 0, 0, 0, 0, 0, 0, 0, 0, 0, 0, 0, 0, 0, 0, 0, 0, 0, 0, 0, 0, 0, 0, 0, 0, 0, 0, 0, 0, 0, 0, 0, 0, 0, 0, 0, 0, 0, 0, 0, 0, 0, 0, 0, 0, 0, 0, 0, 0, 0, 0, 0, 0, 0, 0, 0, 0, 0, 0, 0, 0, 0, 0, 0, 0, 0, 0, 0, 0, 0, 0, 0, 0, 0, 0, 0, 0, 0, 0, 0, 0, 0, 0, 0, 0, 0, 0, 0, 0, 0, 0, 0, 0, 0, 0, 0, 0, 0, 0, 0, 0, 0, 0, 0, 0, 0, 0, 0, 0, 0, 0, 0, 0, 0, 0, 0, 0, 0, 0, 0, 0, 0, 0, 0, 0, 0, 0, 0, 0, 0, 0, 0, 0, 0, 0, 0, 0, 0, 0, 0, 0, 0, 0, 0, 0, 0, 0, 0, 0, 0, 0, 0, 0, 0, 0, 0, 0, 0, 0, 0, 0, 0, 0, 0, 0, 0, 0, 0, 0, 0, 0, 0, 0, 0, 0, 0, 0, 0, 0, 0, 0, 0, 0, 0, 0, 0, 0, 0, 0, 0, 0, 0, 0, 0, 0, 0, 0, 0, 0, 0, 0, 0, 0, 0, 0, 0, 0, 0, 0, 0, 0, 0, 0, 0, 0, 0, 0, 0, 0, 0, 0, 0, 0, 0, 0, 0, 0, 0, 0, 0, 0, 0, 0, 0, 0, 0, 0, 0, 0, 0, 0, 0, 0, 0, 0, 0, 0, 0, 0, 0, 0, 0, 0, 0, 0, 0, 0, 0, 0, 0, 0, 0, 0, 0, 0, 0, 0, 0, 0, 0, 0, 0, 0, 0, 0, 0, 0, 0, 0, 0, 0, 0, 0, 0, 0, 0, 0, 0, 0, 0, 0, 0, 0, 0, 0, 0, 0, 0, 0, 0, 0, 0, 0, 0, 0, 0, 0, 0, 0, 0, 0, 0, 0, 0, 0, 0, 0, 0, 0, 0, 0, 0, 0, 0, 0, 0, 0, 0, 0, 0, 0, 0, 0, 0, 0, 0, 0, 0, 0, 0, 0, 0, 0, 0, 0, 0, 0, 0, 0, 0, 0, 0, 0, 0, 0, 0, 0, 0, 0, 0, 0, 0, 0, 0, 0, 0, 0, 0, 0, 0, 0, 0, 0, 0, 0, 0, 0, 0, 0, 0, 0, 0, 0, 0, 0, 0, 0, 0, 0, 0, 0, 0, 0, 0, 0, 0, 0, 0, 0, 0, 0, 0, 0, 0, 0, 0, 0, 0, 0, 0, 0, 0, 0, 0, 0, 0, 0, 0, 0, 0, 0, 0, 0, 0, 0, 0, 0, 0, 0, 0, 0, 0, 0, 0, 0, 0, 0, 0, 0, 0, 0, 0, 0, 0, 0, 0, 0, 0, 0, 0, 0, 0, 0, 0, 0, 0, 0, 0, 0, 0, 0, 0, 0, 0, 0, 0, 0, 0, 0, 0, 0, 0, 0, 0, 0, 0, 0, 0, 0, 0, 0, 0, 0, 0, 0, 0, 0, 0, 0, 0, 0, 0, 0, 0, 0, 0, 0, 0, 0, 0, 0, 0, 0, 0, 0, 0, 0, 0, 0, 0, 0, 0, 0, 0, 0, 0, 0, 0, 0, 0, 0, 0, 0, 0, 0, 0, 0, 0, 0, 0, 0, 0, 0, 0, 0, 0, 0, 0, 0, 0, 0, 0, 0, 0, 0, 0, 0, 0, 0, 0, 0, 0, 0, 0, 0, 0, 0, 0, 0, 0, 0, 0, 0, 0, 0, 0, 0, 0, 0, 0, 0, 0, 0, 0, 0, 0, 0, 0, 0, 0, 0, 0, 0, 0, 0, 0, 0, 0, 0, 0, 0, 0, 0, 0, 0, 0, 0, 0, 0, 0, 0, 0, 0, 0, 0, 0, 0, 0, 0, 0, 0, 0, 0, 0, 0, 0, 0, 0, 0, 0, 0, 0, 0, 0, 0, 0, 0, 0, 0, 0, 0, 0, 0, 0, 0, 0, 0, 0, 0, 0, 0, 0, 0, 0, 0, 0, 0, 0, 0, 0, 0, 0, 0, 0, 0, 0, 0, 0, 0, 0, 0, 0, 0, 0, 0, 0, 0, 0, 0, 0, 0, 0, 0, 0, 0, 0, 0, 0, 0, 0, 0, 0, 0, 0, 0, 0, 0, 0, 0, 0, 0, 0, 0, 0, 0, 0, 0, 0, 0, 0, 0, 0, 0, 0, 0, 0, 0, 0, 0, 0, 0, 0, 0, 0, 0, 0, 0, 0, 0, 0, 0, 0, 0, 0, 0, 0, 0, 0, 0, 0, 0, 0, 0, 0, 0, 0, 0, 0, 0, 0, 0, 0, 0, 0, 0, 0, 0, 0, 0, 0, 0, 0, 0, 0, 0, 0, 0, 0, 0, 0, 0, 0, 0, 0, 0, 0, 0, 0, 0, 0, 0, 0, 0, 0, 0, 0, 0, 0, 0, 0, 0, 0, 0, 0, 0, 0, 0, 0, 0, 0, 0, 0, 0, 0, 0, 0, 0, 0, 0, 0, 0, 0, 0, 0, 0, 0, 0, 0, 0, 0, 0, 0, 0, 0, 0, 0, 0, 0, 0, 0, 0, 0, 0, 0, 0, 0, 0, 0, 0, 0, 0, 0, 0, 0, 0, 0, 0, 0, 0, 0, 0, 0, 0, 0, 0, 0, 0, 0, 0, 0, 0, 0, 0, 0, 0, 0, 0, 0, 0, 0, 0, 0, 0, 0, 0, 0, 0, 0, 0, 0, 0, 0, 0, 0, 0, 0, 0, 0, 0, 0, 0, 0, 0, 0, 0, 0, 0, 0, 0, 0, 0, 0, 0, 0, 0, 0, 0, 0, 0, 0, 0, 0, 0, 0, 0, 0, 0, 0, 0, 0, 0, 0, 0, 0, 0, 0, 0, 0, 0, 0, 0, 0, 0, 0, 0, 0, 0, 0, 0, 0, 0, 0, 0, 0, 0, 0, 0, 0, 0, 0, 0, 0, 0, 0, 0, 0, 0, 0, 0, 0, 0, 0, 0, 0, 0, 0, 0, 0, 0, 0, 0, 0, 0, 0, 0, 0, 0, 0, 0, 0, 0, 0, 0, 0, 0, 0, 0, 0, 0, 0, 0, 0, 0, 0, 0, 0, 0, 0, 0]","[4.5599997974932194e-05, 0.004763799952343106, 0.021584699978120625, 0.03820029995404184, 0.05520760000217706, 0.07177270000101998, 0.0883208999875933, 0.10507990000769496, 0.12202269997214898, 0.13828859996283427, 0.15534850000403821, 0.1720833999570459, 0.1888720999704674, 0.2050244999700226, 0.22176809998927638, 0.2384201000095345, 0.25539359997492284, 0.2717541999882087, 0.2885761999641545, 0.30534399999305606, 0.3222900999826379, 0.33847409998998046, 0.35525779996532947, 0.3722110000089742, 0.38928579998901114, 0.40553329995600507, 0.4222486999933608, 0.43884729995625094, 0.45557589997770265, 0.4722635999787599, 0.48910159996012226, 0.5055743999546394, 0.522503099986352, 0.5386761999689043, 0.5557071999646723, 0.5720829999772832, 0.5891808999585919, 0.6058165999711491, 0.6221782999928109, 0.6387976999976672, 0.6555895999772474, 0.6721292999573052, 0.6889091999619268, 0.7058330999570899, 0.7224977999576367, 0.7390080000041053, 0.7555986999650486, 0.7725342999910936, 0.7892182999639772, 0.8056247999775223, 0.8222452999907546, 0.8390136999660172, 0.855733499978669, 0.8723217999795452, 0.8891119000036269, 0.9057321999571286, 0.9224701999919489, 0.9393143999623135, 0.9560954999760725, 0.9727057999698445, 0.9892258999752812, 1.0060540999984369, 1.022884799982421, 1.0394843999529257, 1.0559588999603875, 1.0727538999635726, 1.0897482999716885, 1.1059053000062704, 1.1229107999824919, 1.1396519999834709, 1.1563266000011936, 1.1726438999758102, 1.189399599970784, 1.2060011999565177, 1.222826899960637, 1.239390500006266, 1.256631499971263, 1.2730029000085779, 1.2894722999772057, 1.3063555999542587, 1.3231751999701373, 1.3394713999587111, 1.356493400002364, 1.3731755999615416, 1.3900410999776796, 1.4061929999734275, 1.4229556999634951, 1.439534500008449, 1.4566072999732569, 1.4733232999569736, 1.4899077999871224, 1.506358899991028, 1.5231794999563135, 1.5398375999648124, 1.556650799990166, 1.5731787999975495, 1.590073700004723, 1.6069003999582492, 1.6233851999859326, 1.6398964999825694, 1.6567514999769628, 1.6732198999961838, 1.690186299965717, 1.706716199987568, 1.7239753999747336, 1.7399774999939837, 1.7567663000081666, 1.7733475999557413, 1.790184199984651, 1.806677199958358, 1.8233695999952033, 1.839986399980262, 1.8568395999609493, 1.8735192999592982, 1.890103799989447, 1.9071182999759912, 1.9236785999964923, 1.9400804999750108, 1.9570103999576531, 1.973414399952162, 1.9901858000084758, 2.00708609999856, 2.0238088999758475, 2.0404237000038847, 2.057275299972389, 2.073798800003715, 2.0906261999625713, 2.10691599996062, 2.123612699972, 2.1405414000037126, 2.157330399961211, 2.1736162999877706, 2.190844599972479, 2.2069999999948777, 2.2240030999528244, 2.240369799954351, 2.2573907999903895, 2.273775499954354, 2.290566099982243, 2.30715169996256, 2.324129799962975, 2.3404852999956347, 2.357520899968222, 2.3744047000072896, 2.390804999973625, 2.407184099953156, 2.423955300007947, 2.4405723999952897, 2.457657399994787, 2.474338300002273, 2.490640699979849, 2.50753750000149, 2.5240378999733366, 2.5406829999992624, 2.5576735999784432, 2.5740615999675356, 2.591053399955854, 2.607655900006648, 2.624557100003585, 2.6409677999909036, 2.6577716000028886, 2.6744059000047855, 2.690937799983658, 2.707800199976191, 2.7245705999666825, 2.740897399955429, 2.757886499981396, 2.774515099998098, 2.791004700004123, 2.807608400005847, 2.8243596999673173, 2.8409869999741204, 2.858077399956528, 2.8745716999983415, 2.891362999973353, 2.9077278999611735, 2.924710999999661, 2.9413132999907248, 2.957824899989646, 2.974363599962089, 2.9914503999752924, 3.008164200000465, 3.024543999985326, 3.0411679999670014, 3.058406699972693, 3.074524299998302, 3.0915647000074387, 3.1082498999894597, 3.1246090999920852, 3.1414999999688007, 3.158486299973447, 3.1746627999818884, 3.191435699991416, 3.2080006999894977, 3.2247634999803267, 3.2416132999933325, 3.2583084999932908, 3.274991999962367, 3.291477799997665, 3.3081086999736726, 3.3251080999616534, 3.3420149000012316, 3.3584853999782354, 3.3750473999534734, 3.392009400005918, 3.4082072000019252, 3.424975199974142, 3.441572299983818, 3.458912500005681, 3.4752422999590635, 3.4919784999801777, 3.5085573999676853, 3.5253320999909192, 3.541672999970615, 3.558658199966885, 3.5753293999587186, 3.592236500000581, 3.608575899968855, 3.6254625999717973, 3.642047500004992, 3.658583499956876, 3.6754309999523684, 3.692138899990823, 3.708714699954726, 3.725213299971074, 3.742132199986372, 3.7590188999893144, 3.7752765999757685, 3.791934399981983, 3.808918199967593, 3.825391899968963, 3.842263299971819, 3.858967299980577, 3.875628100009635, 3.892421299999114, 3.908782899961807, 3.9257005999679677, 3.9422872999566607, 3.959272499952931, 3.97576979995938, 3.992477499996312, 4.009084399964195, 4.025812299980316, 4.042344099958427, 4.059495199995581, 4.0756179000018165, 4.092673300008755, 4.108984799997415, 4.1259713000035845, 4.142495799984317, 4.159640799975023, 4.175983699969947, 4.192366899980698, 4.20909879996907, 4.225799999956507, 4.242339099990204, 4.25912329996936, 4.276043999998365, 4.292791299987584, 4.309106200002134, 4.326197599992156, 4.34304379997775, 4.359368400007952, 4.37586079997709, 4.392675299954135, 4.409164999960922, 4.4259453999693505, 4.4429815000039525, 4.459291199978907, 4.476164399995469, 4.493115199962631, 4.509537399979308, 4.526326999999583, 4.542907299997751, 4.559691999980714, 4.576528799952939, 4.592931999999564, 4.60951679997379, 4.626489099988248, 4.642776099964976, 4.659690800006501, 4.676130399981048, 4.692841599986423, 4.709456399956252, 4.726492399990093, 4.743132499977946, 4.759614199982025, 4.776522099971771, 4.79297549999319, 4.809817800007295, 4.826340299972799, 4.8430181999574415, 4.859706799965352, 4.8766981000080705, 4.893349399964791, 4.909914099960588, 4.926684799953364, 4.943272300006356, 4.95982589997584, 4.976411999959964, 4.99345579999499, 5.010088799986988, 5.026520099956542, 5.043394999986049, 5.059880799963139, 5.076553599967156, 5.093277300009504, 5.110241399961524, 5.126574299996719, 5.1432432999718, 5.1604179999558255, 5.176628299988806, 5.19338399998378, 5.210313199961092, 5.22676649998175, 5.243397699960042, 5.260089199990034, 5.276749399956316, 5.293624499987345, 5.310425099974964, 5.327017899951898, 5.3437819999526255, 5.360145599988755, 5.377046199981123, 5.393523799953982, 5.410277399991173, 5.427122999972198, 5.443919199984521, 5.460268599970732, 5.476995099976193, 5.4941543999593705, 5.510702300001867, 5.5271508999867365, 5.543911699962337, 5.56044779997319, 5.577314599999227, 5.593868699972518, 5.610698600008618, 5.627353199990466, 5.644046199973673, 5.660541699966416, 5.677521899982821, 5.694006300007459, 5.72738339996431, 5.7441345999832265, 5.760645299975295, 5.777447999978904, 5.7940571999643, 5.81086739996681, 5.8274371000006795, 5.844167199975345, 5.860774100001436, 5.8775971999857575, 5.894240499997977, 5.911012500000652, 5.927502400008962, 5.944216999982018, 5.9609315999550745, 5.978153600008227, 5.994294499978423, 6.011207000003196, 6.044520800001919, 6.0611949999583885, 6.077944899967406, 6.094307299994398, 6.111186199996155, 6.127813300001435, 6.144703599973582, 6.161182899959385, 6.177936199994292, 6.194493599992711, 6.21127729996806, 6.227669599989895, 6.244395899993833, 6.261047300009523, 6.277988999965601, 6.294683299958706, 6.311602899979334, 6.328054999990854, 6.3447606999543495, 6.361138599982951, 6.378163299988955, 6.394529099983629, 6.411247799987905, 6.427895199973136, 6.444942299975082, 6.461514799972065, 6.47823069995502, 6.494627499952912, 6.511627200001385, 6.528297399985604, 6.5450255000032485, 6.561591999954544, 6.578335699974559, 6.5947086999658495, 6.61154049995821, 6.628159899963066, 6.645250600005966, 6.661683599988464, 6.67817049997393, 6.6948347999714315, 6.711506099964026, 6.72839289996773, 6.745320199988782, 6.761475799954496, 6.778520899999421, 6.794934799952898, 6.811929399962537, 6.82827840000391, 6.845408599998336, 6.861607200000435, 6.878521199978422, 6.8950595000060275, 6.911794499959797, 6.92870029999176, 6.945376099960413, 6.9616982999723405, 6.978845799982082, 6.995117799961008, 7.011857999954373, 7.028764099988621, 7.045176399988122, 7.062205399968661, 7.078823999967426, 7.095142300007865, 7.11206359998323, 7.128809999965597, 7.145756299956702, 7.161941299971659, 7.179071299964562, 7.195574399956968, 7.212356999982148, 7.228690399962943, 7.245714399963617, 7.262370799959172, 7.278833899996243, 7.295706100005191, 7.312415399996098, 7.329171699995641, 7.345575199986342, 7.362180900003295, 7.379122899961658, 7.395730499993078, 7.412631499988493, 7.429170099960174, 7.445856899954379, 7.462252700002864, 7.478940000000875, 7.495841900003143, 7.5123162000090815, 7.528992999985348, 7.545943300006911, 7.562604299979284, 7.579235199955292, 7.595946699962951, 7.612723400001414, 7.629073899996001, 7.64617919997545, 7.662468499969691, 7.6791462999535725, 7.6957898999680765, 7.712822099972982, 7.729165999975521, 7.746270000003278, 7.762802999990527, 7.779556099965703, 7.79619109997293, 7.813116499979515, 7.829524800006766, 7.846347599988803, 7.862576599989552, 7.879678299999796, 7.89649139996618, 7.912994899961632, 7.929377099964768, 7.946410599979572, 7.963007299986202, 7.979732399981003, 7.996385999955237, 8.012836999958381, 8.029715499957092, 8.046503599965945, 8.062846199958585, 8.079911099979654, 8.096218199993018, 8.113305999955628, 8.12958599999547, 8.146277699968778, 8.162923399999272, 8.179664199997205, 8.196245400002226, 8.21305520000169, 8.22968150000088, 8.246683699951973, 8.263031299982686, 8.279805600002874, 8.296376499987673, 8.313365299953148, 8.329785699956119, 8.346489399962593, 8.363359299954027, 8.380213399999775, 8.396742499957327, 8.413461499963887, 8.430123099999037, 8.446785799984355, 8.463430600007996, 8.479993499990087, 8.496812600002158, 8.51356999995187, 8.529985899978783, 8.547288300003856, 8.563398799975403, 8.580121200007852, 8.596916999958921, 8.613675399974454, 8.630296899995301, 8.647024000005331, 8.663432299974374, 8.680737199960276, 8.69703280000249, 8.713789500005078, 8.730417499959003, 8.747130599978846, 8.763936200004537, 8.7805133999791, 8.796937999955844, 8.813626199960709, 8.83050280000316, 8.847104499989655, 8.863919299968984, 8.880611600005068, 8.897294199967291, 8.913991699984763, 8.930583799956366, 8.94715449999785, 8.963945899973623, 8.980723199958447, 8.997458899975754, 9.013790400000289, 9.03065519995289, 9.04746679996606, 9.063804499979597, 9.080605499970261, 9.097164599981625, 9.114171999972314, 9.130537099961657, 9.14760229998501, 9.163913699972909, 9.180891799973324, 9.19755109999096, 9.214427599974442, 9.230666299990844, 9.247837700007949, 9.264056999993045, 9.280761000001803, 9.297392699983902, 9.314342500001658, 9.331098499998916, 9.347891099983826, 9.364064599969424, 9.380869399989024, 9.397450099990238, 9.414420899993274, 9.431154899997637, 9.447865599999204, 9.464611099974718, 9.480984699970577, 9.497578699956648, 9.514553799992427, 9.530969599960372, 9.54795459995512, 9.564527799957432, 9.581439399975352, 9.597898999985773, 9.614797299960628, 9.631328799994662, 9.64810910000233, 9.66475850000279, 9.68116390000796, 9.698007999977563, 9.714998099952936, 9.731405099970289, 9.748146899975836, 9.764789999986533, 9.781208899978083, 9.798169699963182, 9.814896099967882, 9.831516699981876, 9.848414399952162, 9.864896999963094, 9.881432099966332, 9.898416799958795, 9.91476849996252, 9.931346800003666, 9.948387299955357, 9.96469849999994, 9.981696899980307, 9.998368899978232, 10.014830500003882, 10.031682499975432, 10.048508599982597, 10.064777199993841, 10.081801399996039, 10.098569299967494, 10.115112699975725, 10.131558599998243, 10.14825440000277, 10.164881799952127, 10.18166729999939, 10.198263400001451, 10.214982500008773, 10.231650799978524, 10.248422499978915, 10.265277099970262, 10.282036199991126, 10.298772599955555, 10.315116099955048, 10.332061499997508, 10.34855759999482, 10.36532579996856, 10.381909899995662, 10.398488699982408, 10.41544499999145, 10.43210639996687, 10.448764099972323, 10.465185199980624, 10.482464400003664, 10.498861000000034, 10.515560999978334, 10.531988899980206, 10.549215200007893, 10.56578389997594, 10.582264099968597, 10.598731399979442, 10.615434299979825, 10.632104099960998, 10.649242299958132, 10.66541039996082, 10.682131599984132, 10.698777499957941, 10.715861700009555, 10.732141699991189, 10.749293599976227, 10.765598799975123, 10.782239899970591, 10.7989222999895, 10.815938199986704, 10.832286299963016, 10.849008499993943, 10.865593599970452, 10.882618299976457, 10.898959599959198, 10.91597739997087, 10.932323099987116, 10.949397599964868, 10.966118499985896, 10.98246480000671, 10.999092999962159, 11.016000899951905, 11.032670799992047, 11.049136799992993, 11.065981599967927, 11.082757099997252, 11.099538799957372, 11.11613669997314, 11.132494299963582, 11.14963939995505, 11.165834399987943, 11.182866199989803, 11.199264900002163, 11.216011199983768, 11.232631799997762, 11.24953029997414, 11.266379799984861, 11.282764500007033, 11.29957239999203, 11.316396599984728, 11.332978899998125, 11.34948599996278, 11.366080200008582, 11.382873399998061, 11.399479499959853, 11.4165692999959, 11.433057799993549, 11.449830700003076, 11.466330399969593, 11.483446099970024, 11.49961080000503, 11.516556899994612, 11.53292229998624, 11.54963929997757, 11.566530099953525, 11.583216600003652, 11.599848699988797, 11.616960099956486, 11.633601399953477, 11.650344099965878, 11.66688889998477, 11.684123699960764, 11.700012999994215, 11.716703299956862, 11.73348850000184, 11.750210299971513, 11.766748499998357, 11.78367239999352, 11.800662799971178, 11.816818899998907, 11.833559599996079, 11.850099099974614, 11.866839999973308, 11.88383479998447, 11.900227200007066, 11.9171138999518, 11.933937299996614, 11.950716499995906, 11.966928399982862, 11.983847399998922, 12.000223999959417, 12.017040400009137, 12.033601999981329, 12.050428099988494, 12.066970299987588, 12.08374749997165, 12.100288899964653, 12.117111500003375, 12.134092699969187, 12.150481299962848, 12.167186399979983, 12.183825099957176, 12.201008999953046, 12.217987999960314, 12.233956199954264, 12.250809399993159, 12.26739729999099, 12.284001599997282, 12.300682700006291, 12.317370899952948, 12.333890599955339, 12.351027600001544, 12.36713139998028, 12.383837100001983, 12.400470399996266, 12.417488699953537, 12.433828999986872, 12.4507397999987, 12.467540999990888, 12.484254199953284, 12.50055679999059, 12.517264499969315, 12.53416689997539, 12.55071969999699, 12.567269499995746, 12.584064800001215, 12.600658699986525, 12.617648599960376, 12.634097100002691, 12.650943599990569, 12.667297200008761, 12.68448419997003, 12.700713799975347, 12.717698199965525, 12.734376200009137, 12.750838999985717, 12.768160399980843, 12.78479329997208, 12.801134299952537, 12.817835599998944, 12.834472199960146, 12.851219100004528, 12.867898800002877, 12.884623899997678, 12.90096249995986, 12.917616199993063, 12.93459099996835, 12.951392499962822, 12.967704199953005, 12.984591599961277, 13.001049399957992, 13.0181141999783, 13.034701199969277, 13.051401300006546, 13.068220499961171, 13.08454209996853, 13.101399199978914, 13.118243400007486, 13.134966399986297, 13.15127809997648, 13.167985399952158, 13.184626700007357, 13.20122349995654, 13.217997699975967, 13.234850299952086, 13.251504599989858, 13.267979500000365, 13.28498870000476, 13.301564599969424, 13.318188799952623, 13.334919799992349, 13.35183939995477, 13.36836249998305, 13.385097499995027, 13.401532499992754, 13.418201299966313, 13.434824700001627, 13.45154439995531, 13.468181899981573, 13.485155600006692, 13.501839599979576, 13.518544399994425, 13.535146499983966, 13.551629099994898, 13.568572099960875, 13.585272500000428, 13.602230499964207, 13.61840569996275, 13.635081399988849, 13.651748899952509, 13.668344699952286, 13.685167599993292, 13.702024900005199, 13.71880669996608, 13.75613599998178, 13.76848049997352, 13.785225400002673, 13.80212099995697, 13.819042299990542, 13.83525709999958, 13.852005399996415, 13.868799799995031, 13.88540239998838, 13.90220730000874, 13.918804599961732, 13.935317899973597, 13.95209929998964, 13.968698099954054, 13.985433399968315, 14.002279799955431, 14.019001099979505, 14.035456499957945, 14.052839899959508, 14.069199299963657, 14.085791699995752, 14.102379199990537, 14.118991399998777, 14.135568699974101, 14.152261999959592, 14.168901600001846, 14.18558699998539, 14.202453200006858, 14.219147499999963, 14.235600799962413, 14.252717699971981, 14.269179099996109, 14.285750999988522, 14.302296399953775, 14.319209999986924, 14.335700700001325, 14.35604779998539, 14.371204399969429, 14.387757199991029, 14.415993099974003, 14.440921999979764, 14.453195399953984, 14.46987089997856, 14.486673099978361, 14.50308309996035, 14.519675899995491, 14.536255499988329, 14.552876900008414, 14.569426900008693, 14.586094399972353, 14.602779100008775, 14.619420500006527, 14.636217399965972, 14.652899499982595, 14.66952150000725, 14.686514400003944, 14.702883299964014, 14.719608199957293, 14.73623039998347, 14.753005599952303, 14.769568099989556, 14.786040999984834, 14.802816499955952, 14.81953599996632, 14.836327800003346, 14.852892700000666, 14.869619999954011, 14.886327899992466, 14.903327199979685, 14.919606799958274, 14.936287499964237, 14.953268699988257, 14.969842399994377, 14.986382899980526, 15.002943600004073, 15.020024099969305, 15.03638000000501, 15.053351099952124, 15.06992799998261, 15.086713899974711, 15.103408199967816, 15.120516199967824, 15.136984399985522, 15.153680499992333, 15.170122799987439, 15.186898599960841, 15.20338979997905, 15.220401600003242, 15.236830199952237, 15.253511899965815, 15.270114799961448, 15.286876099999063, 15.303779499954544, 15.320407899969723, 15.336858599970583, 15.35372059996007, 15.370509799977299, 15.387051299971063, 15.403610999986995, 15.420787399983965, 15.437121199967805, 15.45425869995961, 15.470631400006823, 15.487077899975702, 15.503713799989782, 15.520423899986781, 15.537031099956948, 15.554104799986817, 15.570708899991587, 15.587224699964281, 15.603833400004078, 15.62048969999887, 15.637470999965444, 15.654619899985846, 15.670560700003989, 15.687295899959281, 15.703870099969208, 15.720574899984058, 15.737201599986292, 15.754191499960143, 15.77055289997952, 15.787283099954948, 15.803948599961586, 15.820643299957737, 15.83733619999839, 15.85400789999403, 15.870635100000072, 15.887703799991868, 15.904011300008278, 15.920712599996477, 15.937533999967854, 15.954252399969846, 15.970617299957667, 15.987393099989276, 16.004020599997602, 16.020713899983093, 16.03763669996988, 16.054078799963463, 16.07090910000261, 16.087811600009445, 16.104283900000155, 16.121061099984217, 16.137476000003517, 16.15417339996202, 16.170765199989546, 16.187611899978947, 16.20408989995485, 16.220929600007366, 16.237510999955703, 16.25428989995271, 16.270876700000372, 16.287669699988328, 16.30422319995705, 16.321362799964845, 16.337908099987544, 16.35473139997339, 16.3710287999711, 16.388158099958673, 16.40440589998616, 16.42111090000253, 16.4381687999703, 16.454721799993422, 16.471260599966627, 16.488123299961444, 16.504684799991082, 16.521263299975544, 16.538094599964097, 16.55483059998369, 16.57122379995417, 16.588227899977937, 16.604581399995368, 16.621309299953282, 16.63818889996037, 16.65490929997759, 16.671283899981063, 16.68807689996902, 16.704913900000975, 16.72139189997688, 16.73822040000232, 16.755011999979615, 16.77184830000624, 16.788241899979766, 16.805212699982803, 16.82174689997919, 16.83808739995584, 16.857099499960896, 16.89986060000956, 16.93674109998392, 16.956564199994318, 16.9723216999555, 16.989338899962604, 17.006124599953182, 17.022543700004462, 17.038895500008948, 17.055512099992484, 17.07203089998802, 17.088957700005267, 17.105524499958847, 17.122103800007608, 17.13870660000248, 17.15554589999374, 17.17204519995721, 17.18885599996429, 17.206081699987408, 17.222435999952722, 17.238808499998413, 17.25570829998469, 17.272174199984875, 17.288845799979754, 17.305398800002877, 17.322283299989067, 17.33884159999434, 17.3556125999894, 17.372242699959315, 17.388993599975947, 17.405557799967937, 17.422336899966467, 17.43898569996236, 17.455873999977484, 17.47234330000356, 17.48887860000832, 17.505767199967522, 17.522609399980865, 17.538900099985767, 17.555881699954625, 17.57226719998289, 17.588962399982847, 17.60586529999273, 17.622733799973503, 17.638973399996758, 17.655986599973403, 17.672351599961985, 17.689146299962886, 17.705950999981724, 17.723100400005933]",['next_button_numline'],0.005194510042201728,17.72798431001138,124.49724719999358,142.23197751000407,[ 0.  -0.6],126.29912809998496,142.23197751000407,126.29912809998496,142.23197751000407,[-0.51597222  0.7       ],15.932849410019116,3.770363109972095,12.162486300047021,1.8018808999913745,0,"[0, 0, 0, 0, 0, 0, 0, 0, 0, 0, 0, 0, 0, 0, 0, 0, 0, 0, 0, 0, 0, 0, 0, 0, 0, 0, 0, 0, 0, 0, 0, 0, 0, 0, 0, 0, 0, 0, 0, 0, 0, 0, 0, 0, 0, 0, 0, 0, 0, 0, 0, 0, 0, 0, 0, 0, 0, 0, 0, 0, 0, 0, 0, 0, 0, 0, 0, 0, 0, 0, 0, 0, 0, 0, 0, 0, 0, 0, 0, 0, 0, 0, 0, 0, 0, 0, 0, 0, 0, 0, 0, 0, 0, 0, 0, 0, 0, 0, 0, 0, 0, 0, 0, 0, 0, 0, 0, 0, 0, 0, 0, 0, 0, 0, 0, 0, 0, 0, 0, 0, 0, 0, 0, 0, 0, 0, 0, 0, 0, 0, 0, 0, 0, 0, 0, 0, 0, 0, 0, 0, 0, 0, 0, 0, 0, 0, 0, 0, 0, 0, 0, 0, 0, 0, 0, 0, 0, 0, 0, 0, 0, 0, 0, 0, 0, 0, 0, 0, 0, 0, 0, 0, 0, 0, 0, 0, 0, 0, 0, 0, 0, 0, 0, 0, 0, 0, 0, 0, 0, 0, 0, 0, 0, 0, 0, 0, 0, 0, 0, 0, 0, 0, 0, 0, 0, 0, 0, 0, 0, 0, 0, 0, 0, 0, 0, 0, 0, 0, 0, 0, 0, 0, 0, 0, 0, 0, 0, 0, 0, 0, 0, 0, 0, 0, 0, 0, 0, 0, 0, 0, 0, 0, 0, 0, 0, 0, 0, 0, 0, 0, 0, 0, 0, 0, 0, 0, 0, 0, 0, 0, 0, 0, 0, 0, 0, 0, 0, 0, 0, 0, 0, 0, 0, 0, 0, 0, 0, 0, 0, 0, 0, 0, 0, 0, 0, 0, 0, 0, 0, 0, 0, 0, 0, 0, 0, 0, 0, 0, 0, 0, 0, 0, 0, 0, 0, 0, 0, 0, 0, 0, 0, 0, 0, 0, 0, 0, 0, 0, 0, 0, 0, 0, 0, 0, 0, 0, 0, 0, 0, 0, 0, 0, 0, 0, 0, 0, 0, 0, 0, 0, 0, 0, 0, 0, 0, 0, 0, 0, 0, 0, 0, 0, 0, 0, 0, 0, 0, 0, 0, 0, 0, 0, 0, 0, 0, 0, 1, 1, 1, 1, 1, 0, 0, 0, 0, 0, 0, 0, 0, 0, 0, 0, 0, 0, 0, 0, 0, 0, 0, 0, 0, 0, 0, 0, 0, 0, 0, 0, 0, 0, 0, 0, 0, 0, 0, 0, 0, 0, 0, 0, 0, 0, 0, 0, 0, 0, 0, 0, 0, 0, 0, 0, 0, 0, 0, 0, 0, 0, 0, 0, 0, 0, 0, 0, 0, 0, 0, 0, 0, 0, 0, 0, 0, 0, 0, 0, 0, 0, 0, 0, 0, 0, 0, 0, 0, 0, 0, 0, 0, 0, 0, 0, 0, 0, 0, 0, 0, 0, 0, 0, 0, 0, 0, 0, 0, 0, 0, 0, 0, 0, 0, 0, 0, 0, 0, 0, 0, 0, 0, 0, 0, 0, 0, 0, 0, 0, 0, 0, 0, 0, 0, 0, 0, 0, 0, 0, 0, 0, 0, 0, 0, 0, 0, 0, 0, 0, 0, 0, 0, 0, 0, 0, 0, 0, 0, 0, 0, 0, 0, 0, 0, 0, 0, 0, 0, 0, 0, 0, 0, 0, 0, 0, 0, 0, 0, 0, 0, 0, 0, 0, 0, 0, 0, 0, 0, 0, 0, 0, 0, 0, 0, 0, 0, 0, 0, 0, 0, 0, 0, 0, 0, 0, 0, 0, 0, 0, 0, 0, 0, 0, 0, 0, 0, 0, 0, 0, 0, 0, 0, 0, 0, 0, 0, 0, 0, 0, 0, 0, 0, 0, 0, 0, 0, 0, 0, 0, 0, 0, 0, 0, 0, 0, 0, 0, 0, 0, 0, 0, 0, 0, 0, 0, 0, 0, 0, 0, 0, 0, 0, 0, 0, 0, 0, 0, 0, 0, 0, 0, 0, 0, 0, 0, 0, 0, 0, 0, 0, 0, 0, 0, 0, 0, 0, 0, 0, 0, 0, 0, 0, 0, 0, 0, 0, 0, 0, 0, 0, 0, 0, 0, 0, 0, 0, 0, 0, 0, 0, 0, 0, 0, 0, 0, 0, 0, 0, 0, 0, 0, 0, 0, 0, 0, 0, 0, 0, 0, 0, 0, 0, 0, 0, 0, 0, 0, 0, 0, 0, 0, 0, 0, 0, 0, 0, 0, 0, 0, 0, 0, 0, 0, 0, 0, 0, 0, 0, 0, 0, 0, 0, 0, 0, 0, 0, 0, 0, 0, 0, 0, 0, 0, 0, 0, 0, 0, 0, 0, 0, 0, 0, 0, 0, 0, 0, 0, 0, 0, 0, 0, 0, 0, 0, 0, 0, 0, 0, 0, 0, 0, 0, 0, 0, 0, 0, 0, 0, 0, 0, 0, 0, 0, 0, 0, 0, 0, 0, 0, 0, 0, 0, 0, 0, 0, 0, 0, 0, 0, 0, 0, 0, 0, 0, 0, 0, 0, 0, 0, 0, 0, 0, 0, 0, 0, 0, 0, 0, 0, 0, 0, 0, 0, 0, 0, 0, 0, 0, 0, 0, 0, 0, 0, 0, 0, 0, 0, 0, 0, 0, 0, 0, 0, 0, 0, 0, 0, 0, 0, 0, 0, 0, 0, 0, 0, 0, 0, 0, 0, 0, 0, 0, 0, 0, 0, 0, 0, 0, 0, 0, 0, 0, 0, 0, 0, 0, 0, 0, 0, 0, 0, 0, 0, 0, 0, 0, 0, 0, 0, 0, 0, 0, 0, 0, 0, 0, 0, 0, 0, 0, 0, 0, 0, 0, 0, 0, 0, 0, 0, 0, 0, 0, 0, 0, 0, 0, 0, 0, 0, 0, 0, 0, 0, 0, 0, 0, 0, 0, 0, 0, 0, 0, 0, 0, 0, 0, 0, 0, 0, 0, 0, 0, 0, 0, 0, 0, 0, 0, 0, 0, 0, 0, 0, 0, 0, 0, 0, 0, 0, 0, 0, 0, 0, 0, 0, 0, 0, 0, 0, 0, 0, 0, 0, 0, 0, 0, 0, 0, 0, 0, 0, 0, 0, 0, 0, 0, 0, 0, 0, 0, 0, 0, 0, 0, 0, 0, 0, 0, 0, 0, 0, 0, 0, 0, 0, 0, 0, 0, 0, 0, 0, 0, 0, 0, 0, 1, 1, 1, 1, 0, 0, 0, 0, 0, 0, 0, 0, 0, 0, 0, 0, 0, 0, 0, 0, 0, 0, 0, 0, 0, 0, 0, 0, 0, 0, 0, 0, 0, 0, 0, 0, 0, 0, 0, 0, 0, 0, 0, 0, 0]",8.0,17.0,Otro,130.63703919999534,None,,,,,,,,,,,,,,,,,,,,,,,,,tt3,2021_May_20_0535,Dictador,2021.1.4,60.11334974160353,
,,0,0,Train,Otro,4,3,17,5,,,,,,,0,1,1,1,,,,,,,,,,,,,,,,,,,,,,,,,,,,,,,,,,,,,,142.2489166999585,None,0.7805555555555556,-0.817283950617284,1,0,0,partition_image,0.001705210015643388,None,142.2489166999585,None,Otro,143.08250879996922,146.03563640997163,"[0.7805555555555556, 0.7805555555555556, 0.7805555555555556, 0.7805555555555556, 0.7805555555555556, 0.7805555555555556, 0.7805555555555556, 0.7805555555555556, 0.7805555555555556, 0.7805555555555556, 0.7805555555555556, 0.7805555555555556, 0.7805555555555556, 0.7805555555555556, 0.7805555555555556, 0.7805555555555556, 0.7805555555555556, 0.7805555555555556, 0.7805555555555556, 0.7805555555555556, 0.7805555555555556, 0.7805555555555556, 0.7805555555555556, 0.7805555555555556, 0.7805555555555556, 0.7805555555555556, 0.7805555555555556, 0.7805555555555556, 0.7805555555555556, 0.7805555555555556, 0.7805555555555556, 0.7805555555555556, 0.7805555555555556, 0.7805555555555556, 0.7805555555555556, 0.7805555555555556, 0.7805555555555556, 0.7805555555555556, 0.7805555555555556, 0.7805555555555556, 0.7805555555555556, 0.7805555555555556, 0.7805555555555556, 0.7805555555555556, 0.7805555555555556, 0.7805555555555556, 0.7805555555555556, 0.7805555555555556, 0.7805555555555556, 0.7805555555555556, 0.7805555555555556, 0.7805555555555556, 0.7805555555555556, 0.7805555555555556, 0.7805555555555556, 0.7805555555555556, 0.7805555555555556, 0.7805555555555556, 0.7805555555555556, 0.7805555555555556, 0.7805555555555556, 0.7805555555555556, 0.7805555555555556, 0.7805555555555556, 0.7805555555555556, 0.7555555555555555, 0.6694444444444444, 0.5388888888888889, 0.425, 0.3277777777777778, 0.23194444444444445, 0.19166666666666668, 0.1763888888888889, 0.16805555555555557, 0.1638888888888889, 0.16111111111111112, 0.1486111111111111, 0.12222222222222222, 0.07916666666666666, 0.05138888888888889, 0.025, 0.005555555555555556, 0.004166666666666667, 0.004166666666666667, 0.004166666666666667, 0.004166666666666667, 0.001388888888888889, -0.005555555555555556, -0.009722222222222222, -0.011111111111111112, -0.011111111111111112, -0.011111111111111112, -0.011111111111111112, -0.011111111111111112, -0.011111111111111112, -0.011111111111111112, -0.011111111111111112, -0.009722222222222222, -0.006944444444444444, -0.006944444444444444, -0.006944444444444444, -0.006944444444444444, -0.005555555555555556, 0.009722222222222222, 0.027777777777777776, 0.04861111111111111, 0.05416666666666667, 0.06527777777777778, 0.06666666666666667, 0.06944444444444445, 0.0763888888888889, 0.07777777777777778, 0.08055555555555556, 0.08055555555555556, 0.08055555555555556, 0.08055555555555556, 0.08055555555555556, 0.08055555555555556, 0.08055555555555556, 0.08055555555555556, 0.08055555555555556, 0.08055555555555556, 0.08055555555555556, 0.08055555555555556, 0.08055555555555556, 0.08055555555555556, 0.08055555555555556, 0.08055555555555556, 0.08055555555555556, 0.08055555555555556, 0.08055555555555556, 0.08055555555555556, 0.08055555555555556, 0.08055555555555556, 0.08055555555555556, 0.08055555555555556, 0.08055555555555556, 0.08055555555555556, 0.08055555555555556, 0.08194444444444444, 0.08333333333333333, 0.08333333333333333, 0.08333333333333333, 0.08611111111111111, 0.09166666666666666, 0.10555555555555556, 0.10972222222222222, 0.12083333333333333, 0.1527777777777778, 0.18472222222222223, 0.225, 0.2708333333333333, 0.32083333333333336, 0.37916666666666665, 0.44305555555555554, 0.5402777777777777, 0.5763888888888888, 0.6236111111111111, 0.6708333333333333, 0.7208333333333333, 0.7361111111111112, 0.75, 0.7625, 0.7680555555555556, 0.7708333333333334, 0.7722222222222223, 0.7722222222222223, 0.7722222222222223, 0.7722222222222223, 0.7736111111111111, 0.7791666666666667, 0.8027777777777778, 0.8152777777777778, 0.8236111111111111, 0.8236111111111111, 0.8236111111111111, 0.8236111111111111]","[-0.817283950617284, -0.817283950617284, -0.817283950617284, -0.817283950617284, -0.817283950617284, -0.817283950617284, -0.817283950617284, -0.817283950617284, -0.817283950617284, -0.817283950617284, -0.817283950617284, -0.817283950617284, -0.817283950617284, -0.817283950617284, -0.817283950617284, -0.817283950617284, -0.817283950617284, -0.817283950617284, -0.817283950617284, -0.817283950617284, -0.817283950617284, -0.817283950617284, -0.817283950617284, -0.817283950617284, -0.817283950617284, -0.817283950617284, -0.817283950617284, -0.817283950617284, -0.817283950617284, -0.817283950617284, -0.817283950617284, -0.817283950617284, -0.817283950617284, -0.817283950617284, -0.817283950617284, -0.817283950617284, -0.817283950617284, -0.817283950617284, -0.817283950617284, -0.817283950617284, -0.817283950617284, -0.817283950617284, -0.817283950617284, -0.817283950617284, -0.817283950617284, -0.817283950617284, -0.817283950617284, -0.817283950617284, -0.817283950617284, -0.817283950617284, -0.817283950617284, -0.817283950617284, -0.817283950617284, -0.817283950617284, -0.817283950617284, -0.817283950617284, -0.817283950617284, -0.817283950617284, -0.817283950617284, -0.817283950617284, -0.817283950617284, -0.817283950617284, -0.817283950617284, -0.817283950617284, -0.817283950617284, -0.817283950617284, -0.817283950617284, -0.8098765432098766, -0.8024691358024691, -0.7777777777777778, -0.7481481481481481, -0.7234567901234568, -0.7086419753086419, -0.7037037037037037, -0.6987654320987654, -0.6962962962962963, -0.6888888888888889, -0.6790123456790124, -0.6617283950617284, -0.6518518518518519, -0.6444444444444445, -0.6419753086419753, -0.6395061728395062, -0.6395061728395062, -0.6395061728395062, -0.6395061728395062, -0.6395061728395062, -0.6395061728395062, -0.6395061728395062, -0.6395061728395062, -0.6395061728395062, -0.6395061728395062, -0.6395061728395062, -0.6395061728395062, -0.6395061728395062, -0.6395061728395062, -0.6395061728395062, -0.6395061728395062, -0.6370370370370371, -0.6370370370370371, -0.6370370370370371, -0.6370370370370371, -0.6345679012345679, -0.5259259259259259, -0.32592592592592595, -0.06419753086419754, 0.15308641975308643, 0.35802469135802467, 0.37777777777777777, 0.4074074074074074, 0.4962962962962963, 0.5358024691358024, 0.5555555555555556, 0.5555555555555556, 0.5555555555555556, 0.5555555555555556, 0.5555555555555556, 0.5555555555555556, 0.5555555555555556, 0.5555555555555556, 0.5555555555555556, 0.5555555555555556, 0.5679012345679012, 0.5876543209876544, 0.6098765432098765, 0.6222222222222222, 0.6469135802469136, 0.6617283950617284, 0.6790123456790124, 0.6839506172839506, 0.691358024691358, 0.6962962962962963, 0.6962962962962963, 0.6962962962962963, 0.6962962962962963, 0.6962962962962963, 0.6962962962962963, 0.6962962962962963, 0.6962962962962963, 0.6987654320987654, 0.7012345679012346, 0.7012345679012346, 0.7012345679012346, 0.6938271604938272, 0.6567901234567901, 0.5975308641975309, 0.5802469135802469, 0.5432098765432098, 0.4469135802469136, 0.34814814814814815, 0.21728395061728395, 0.08148148148148149, -0.056790123456790124, -0.19753086419753085, -0.3308641975308642, -0.49382716049382713, -0.5506172839506173, -0.6197530864197531, -0.6962962962962963, -0.7851851851851852, -0.8197530864197531, -0.8444444444444444, -0.8617283950617284, -0.8641975308641975, -0.8666666666666667, -0.8691358024691358, -0.8691358024691358, -0.8691358024691358, -0.8691358024691358, -0.8691358024691358, -0.8691358024691358, -0.8691358024691358, -0.8691358024691358, -0.8691358024691358, -0.8691358024691358, -0.8691358024691358, -0.8691358024691358]","[1, 1, 1, 1, 1, 1, 0, 0, 0, 0, 0, 0, 0, 0, 0, 0, 0, 0, 0, 0, 0, 0, 0, 0, 0, 0, 0, 0, 0, 0, 0, 0, 0, 0, 0, 0, 0, 0, 0, 0, 0, 0, 0, 0, 0, 0, 0, 0, 0, 0, 0, 0, 0, 0, 0, 0, 0, 0, 0, 0, 0, 0, 0, 0, 0, 0, 0, 0, 0, 0, 0, 0, 0, 0, 0, 0, 0, 0, 0, 0, 0, 0, 0, 0, 0, 0, 0, 0, 0, 0, 0, 0, 0, 0, 0, 0, 0, 0, 0, 0, 0, 0, 0, 0, 0, 0, 0, 0, 0, 0, 0, 0, 0, 0, 0, 0, 0, 0, 0, 0, 0, 0, 0, 0, 0, 0, 0, 0, 0, 0, 0, 0, 0, 0, 0, 0, 0, 0, 0, 0, 0, 0, 0, 0, 0, 0, 0, 0, 0, 0, 0, 0, 0, 0, 0, 0, 0, 0, 0, 0, 0, 0, 0, 0, 0, 0, 0, 0, 0, 0, 0, 0, 0, 0, 0, 0, 1]","[0, 0, 0, 0, 0, 0, 0, 0, 0, 0, 0, 0, 0, 0, 0, 0, 0, 0, 0, 0, 0, 0, 0, 0, 0, 0, 0, 0, 0, 0, 0, 0, 0, 0, 0, 0, 0, 0, 0, 0, 0, 0, 0, 0, 0, 0, 0, 0, 0, 0, 0, 0, 0, 0, 0, 0, 0, 0, 0, 0, 0, 0, 0, 0, 0, 0, 0, 0, 0, 0, 0, 0, 0, 0, 0, 0, 0, 0, 0, 0, 0, 0, 0, 0, 0, 0, 0, 0, 0, 0, 0, 0, 0, 0, 0, 0, 0, 0, 0, 0, 0, 0, 0, 0, 0, 0, 0, 0, 0, 0, 0, 0, 0, 0, 0, 0, 0, 0, 0, 0, 0, 0, 0, 0, 0, 0, 0, 0, 0, 0, 0, 0, 0, 0, 0, 0, 0, 0, 0, 0, 0, 0, 0, 0, 0, 0, 0, 0, 0, 0, 0, 0, 0, 0, 0, 0, 0, 0, 0, 0, 0, 0, 0, 0, 0, 0, 0, 0, 0, 0, 0, 0, 0, 0, 0, 0, 0]","[0, 0, 0, 0, 0, 0, 0, 0, 0, 0, 0, 0, 0, 0, 0, 0, 0, 0, 0, 0, 0, 0, 0, 0, 0, 0, 0, 0, 0, 0, 0, 0, 0, 0, 0, 0, 0, 0, 0, 0, 0, 0, 0, 0, 0, 0, 0, 0, 0, 0, 0, 0, 0, 0, 0, 0, 0, 0, 0, 0, 0, 0, 0, 0, 0, 0, 0, 0, 0, 0, 0, 0, 0, 0, 0, 0, 0, 0, 0, 0, 0, 0, 0, 0, 0, 0, 0, 0, 0, 0, 0, 0, 0, 0, 0, 0, 0, 0, 0, 0, 0, 0, 0, 0, 0, 0, 0, 0, 0, 0, 0, 0, 0, 0, 0, 0, 0, 0, 0, 0, 0, 0, 0, 0, 0, 0, 0, 0, 0, 0, 0, 0, 0, 0, 0, 0, 0, 0, 0, 0, 0, 0, 0, 0, 0, 0, 0, 0, 0, 0, 0, 0, 0, 0, 0, 0, 0, 0, 0, 0, 0, 0, 0, 0, 0, 0, 0, 0, 0, 0, 0, 0, 0, 0, 0, 0, 0]","[4.469999112188816e-05, 0.010670199990272522, 0.027200400014407933, 0.04446050000842661, 0.06060799997067079, 0.07730810000794008, 0.0940730000147596, 0.11085940001066774, 0.12732309999410063, 0.14431429997785017, 0.16094370000064373, 0.17767529998673126, 0.19405569997616112, 0.21081339998636395, 0.2274248999892734, 0.24440460000187159, 0.2610236000036821, 0.27784880000399426, 0.2940832999884151, 0.31139380001695827, 0.3276009999681264, 0.3442273999680765, 0.3608523000148125, 0.3779103999841027, 0.3942609999794513, 0.41122860001632944, 0.4276341999648139, 0.4446094000013545, 0.46096910000778735, 0.4782272999873385, 0.4946537999785505, 0.5113933999673463, 0.5277501000091434, 0.5444241999648511, 0.5610944000072777, 0.5780913999769837, 0.5944260999676771, 0.6114606999908574, 0.628082400013227, 0.6445544000016525, 0.6615114000160247, 0.6782172999810427, 0.6948088000062853, 0.7116413000039756, 0.7279063999885693, 0.744908900000155, 0.761713600018993, 0.7781092000077479, 0.7949375999742188, 0.8118144000181928, 0.8280570000060834, 0.8447974000009708, 0.8618332999758422, 0.8783652000129223, 0.894968600012362, 0.911759999988135, 0.9281098999781534, 0.9448884999728762, 0.9615081999800168, 0.9782049999921583, 0.9953656999859959, 1.0116608999669552, 1.0282101000193506, 1.044987500004936, 1.0617337999865413, 1.0788913000142202, 1.0951205000164919, 1.1118703999673016, 1.1284916999866255, 1.1456188000156544, 1.1620008000172675, 1.1785793000017293, 1.1956836999743246, 1.2120065999915823, 1.2286189000005834, 1.2454735999926925, 1.261888100008946, 1.2786340999882668, 1.2953228999977, 1.3121471999911591, 1.3286955999792553, 1.345504599972628, 1.3618575999862514, 1.378590999986045, 1.3952820000122301, 1.4121840000152588, 1.4290729999775067, 1.4458826999762096, 1.4620806999737397, 1.4790815999731421, 1.4953696000156924, 1.5120493000140414, 1.528724899981171, 1.5459121000021696, 1.5620735000120476, 1.5788473999709822, 1.5957486999686807, 1.6124083999893628, 1.628837399999611, 1.6455362999695353, 1.6621832000091672, 1.6792714999755844, 1.6957056999672204, 1.7126332999905571, 1.7291525999899022, 1.7458241999847814, 1.7624323000200093, 1.7791978999739513, 1.796132099989336, 1.8125600999919698, 1.8291298999683931, 1.8459702999680303, 1.8626094000064768, 1.8793465999769978, 1.8957280999748036, 1.9128970999736339, 1.929363499977626, 1.946213599992916, 1.962886499997694, 1.9791826999862678, 1.9961142999818549, 2.0132086999947205, 2.0296471000183374, 2.0463718000100926, 2.0627917000092566, 2.079552999988664, 2.096106000011787, 2.1128831999958493, 2.129331399977673, 2.146656900004018, 2.1630921000032686, 2.179713300021831, 2.196034199965652, 2.212812200014014, 2.229645600018557, 2.2462065999861807, 2.262804199999664, 2.27955470001325, 2.296545299992431, 2.313108399976045, 2.3295488000148907, 2.3463015999877825, 2.3634241999825463, 2.3799240000080317, 2.3963494999916293, 2.413157399976626, 2.429766999965068, 2.446560900018085, 2.463077299995348, 2.4799352000118233, 2.4964688000036404, 2.5131601999746636, 2.5298457000171766, 2.5466014000121504, 2.580110299983062, 2.5965249000000767, 2.613309099979233, 2.6309804000193253, 2.6468391999951564, 2.663292100012768, 2.68008809996536, 2.696701099979691, 2.713469000009354, 2.7300784999970347, 2.7468469999730587, 2.763301400002092, 2.7800446000183, 2.7969296000082977, 2.81385949999094, 2.830184999969788, 2.847033999976702, 2.8635512000182644, 2.880315700022038, 2.8967348000151105, 2.9136264999979176, 2.9301289999857545, 2.947279100015294]",['next_button_numline'],0.010467209969647229,2.9575186099973507,143.08250879996922,146.03563640997163,[ 0.  -0.6],144.41716829995858,146.03563640997163,144.41716829995858,146.03563640997163,[-0.32916667  0.7       ],1.6184681100130547,0.4003948100435082,1.2180732999695465,1.3346594999893568,0,"[0, 0, 0, 0, 0, 0, 0, 0, 0, 0, 0, 0, 0, 0, 0, 0, 0, 0, 0, 0, 0, 0, 0, 0, 0, 0, 0, 0, 0, 0, 0, 0, 0, 0, 0, 0, 0, 0, 0, 0, 0, 0, 0, 0, 0, 0, 0, 0, 0, 0, 0, 0, 0, 0, 0, 0, 0, 0, 0, 0, 0, 0, 0, 0, 0, 0, 0, 0, 0, 0, 0, 0, 0, 0, 0, 0, 0, 0, 0, 0, 0, 0, 0, 0, 0, 0, 0, 0, 0, 0, 0, 0, 0, 0, 0, 0, 0, 0, 0, 0, 0, 0, 0, 0, 0, 0, 0, 0, 0, 0, 0, 0, 0, 0, 0, 0, 0, 0, 0, 0, 0, 0, 0, 0, 0, 0, 0, 1, 1, 1, 1, 1, 1, 1, 1, 1, 1, 1, 1, 1, 1, 1, 1, 1, 1, 0, 0, 0, 0, 0, 0, 0, 0, 0, 0, 0, 0, 0, 0, 0, 0, 0, 0, 0, 0, 0, 0, 0, 0, 0, 0, 0, 0, 0, 0, 0, 0]",10.0,7.0,Otro,145.20118569995975,None,,,,,,,,,,,,,,,,,,,,,,,,,tt3,2021_May_20_0535,Dictador,2021.1.4,60.11334974160353,
