Mouse_Instructions.x,Mouse_Instructions.y,Mouse_Instructions.leftButton,Mouse_Instructions.midButton,Mouse_Instructions.rightButton,Mouse_Instructions.clicked_name,instruccioness.thisRepN,instruccioness.thisTrialN,instruccioness.thisN,instruccioness.thisIndex,instruccioness.ran,Instrucciones,Texto,Cedula,date,expName,psychopyVersion,OS,frameRate,partition_mouse.x,partition_mouse.y,partition_mouse.leftButton,partition_mouse.midButton,partition_mouse.rightButton,partition_mouse.clicked_name,rolotro,tracking_2.x,tracking_2.y,tracking_2.leftButton,tracking_2.midButton,tracking_2.rightButton,tracking_2.time,tracking_2.stopped,tracking_2.startedR,tracking_2.stoppedR,start_region_2.stopped,start_region_2.pos,Question_2.started,Question_2.stopped,O0.startedR,O0.stoppedR,O0_choiceR.pos,Total_Time,Resp_Time,Mov_Time,Time_to_start,Choice,liftedFinger,Trainingg.thisRepN,Trainingg.thisTrialN,Trainingg.thisN,Trainingg.thisIndex,Trainingg.ran,Ud,Otro,Type,Rol_otro,Otro_transf,Multiplicador,Ud_manos,fichas_base,O1.startedR,O1.stoppedR,O1_choiceR.pos,fin_entrenamiento_mouse.x,fin_entrenamiento_mouse.y,fin_entrenamiento_mouse.leftButton,fin_entrenamiento_mouse.midButton,fin_entrenamiento_mouse.rightButton,fin_entrenamiento_mouse.clicked_name,mouse2.x,mouse2.y,mouse2.leftButton,mouse2.midButton,mouse2.rightButton,mouse2.clicked_name,trials.thisRepN,trials.thisTrialN,trials.thisN,trials.thisIndex,trials.ran,trials_2.thisRepN,trials_2.thisTrialN,trials_2.thisN,trials_2.thisIndex,trials_2.ran,TextoR,Pregunta
0.768518565,-0.756895155,1,0,0,next_button,0,0,0,0,1,1,"Imagine que usted y otra persona reciben cada uno 10 fichas. Cada una vale $3.000 pesos. 

Oprima la flecha para continuar.",31357119,2021-04-21_13h48.37.030,DictadorBinary,2021.1.4,Linux armv7l,60.06727535,,,,,,,,,,,,,,,,,,,,,,,,,,,,,,,,,,,,,,,,,,,,,,,,,,,,,,,,,,,,,,,,,,,,,
0.737037129,-0.731153036,1,0,0,next_button,0,1,1,1,1,2,"La otra persona le puede transferir a usted de 0 a 10 fichas. Esas fichas se triplican una vez se transfieren a usted.

Oprima la flecha para continuar",31357119,2021-04-21_13h48.37.030,DictadorBinary,2021.1.4,Linux armv7l,60.06727535,,,,,,,,,,,,,,,,,,,,,,,,,,,,,,,,,,,,,,,,,,,,,,,,,,,,,,,,,,,,,,,,,,,,,
0.788888861,-0.737588652,1,0,0,next_button,0,2,2,2,1,3,"Por ejemplo, si la otra persona le transfiere 2 fichas, se convierten en 6 fichas (2x3). Así, usted tendría en sus manos 16 fichas en total.

Oprima la flecha para continuar",31357119,2021-04-21_13h48.37.030,DictadorBinary,2021.1.4,Linux armv7l,60.06727535,,,,,,,,,,,,,,,,,,,,,,,,,,,,,,,,,,,,,,,,,,,,,,,,,,,,,,,,,,,,,,,,,,,,,
0.787037129,-0.799369563,1,0,0,next_button,0,3,3,3,1,4,"Su tarea es dividir las fichas que quedan en sus manos entre los dos.

Oprima la flecha para continuar",31357119,2021-04-21_13h48.37.030,DictadorBinary,2021.1.4,Linux armv7l,60.06727535,,,,,,,,,,,,,,,,,,,,,,,,,,,,,,,,,,,,,,,,,,,,,,,,,,,,,,,,,,,,,,,,,,,,,
0.853703837,-0.817389046,1,0,0,next_button,0,4,4,4,1,5,"Ninguno sabe el nombre del otro. 

Oprima la flecha para continuar.",31357119,2021-04-21_13h48.37.030,DictadorBinary,2021.1.4,Linux armv7l,60.06727535,,,,,,,,,,,,,,,,,,,,,,,,,,,,,,,,,,,,,,,,,,,,,,,,,,,,,,,,,,,,,,,,,,,,,
0.922222153,-0.782637273,1,0,0,next_button,0,5,5,5,1,6,"En cada turno, muevase al cuadro inferior para que aparezcan las cantidades. Desplacese a la cantidad que le daria al OTRO. 

Oprima la flecha para continuar.",31357119,2021-04-21_13h48.37.030,DictadorBinary,2021.1.4,Linux armv7l,60.06727535,,,,,,,,,,,,,,,,,,,,,,,,,,,,,,,,,,,,,,,,,,,,,,,,,,,,,,,,,,,,,,,,,,,,,
0.762962871,-0.803230967,1,0,0,next_button,0,6,6,6,1,7,"Si esta en su celular o una tableta, desplace su dedo por la pantalla mientras escoge.

Oprima la flecha para continuar.",31357119,2021-04-21_13h48.37.030,DictadorBinary,2021.1.4,Linux armv7l,60.06727535,,,,,,,,,,,,,,,,,,,,,,,,,,,,,,,,,,,,,,,,,,,,,,,,,,,,,,,,,,,,,,,,,,,,,
0.729629579,-0.732440229,1,0,0,next_button,0,7,7,7,1,8,"Empecemos con un entrenamiento corto para familiarizarse. 

Oprima la flecha para continuar.",31357119,2021-04-21_13h48.37.030,DictadorBinary,2021.1.4,Linux armv7l,60.06727535,,,,,,,,,,,,,,,,,,,,,,,,,,,,,,,,,,,,,,,,,,,,,,,,,,,,,,,,,,,,,,,,,,,,,
,,,,,,,,,,,,,31357119,2021-04-21_13h48.37.030,DictadorBinary,2021.1.4,Linux armv7l,60.06727535,0.805555445,-0.80966641,1,0,0,partition_image,Otro,"[0.8055554448341836,0.8111111387914541,0.8111111387914541,0.8111111387914541,0.8111111387914541,0.8111111387914541,0.8111111387914541,0.8111111387914541,0.8111111387914541,0.8111111387914541,0.8111111387914541,0.8111111387914541,0.8111111387914541,0.8111111387914541,0.8111111387914541,0.8111111387914541,0.8111111387914541,0.8111111387914541,0.8111111387914541,0.8111111387914541,0.8111111387914541,0.8111111387914541,0.8111111387914541,0.8111111387914541,0.8111111387914541,0.8111111387914541,0.8111111387914541,0.8111111387914541,0.8111111387914541,0.8111111387914541,0.8111111387914541,0.8111111387914541,0.8111111387914541,0.8111111387914541,0.8111111387914541,0.8111111387914541,0.8111111387914541,0.8111111387914541,0.8111111387914541,0.8111111387914541,0.8111111387914541,0.8111111387914541,0.8111111387914541,0.8111111387914541,0.8111111387914541,0.8111111387914541,0.8111111387914541,0.8111111387914541,0.8111111387914541,0.8111111387914541,0.8111111387914541,0.8111111387914541,0.8111111387914541,0.8111111387914541,0.8111111387914541,0.8111111387914541,0.8111111387914541,0.8111111387914541,0.8111111387914541,0.8111111387914541,0.8111111387914541,0.8111111387914541,0.8111111387914541,0.8111111387914541,0.8111111387914541,0.8111111387914541,0.8111111387914541,0.8111111387914541,0.8111111387914541,0.8111111387914541,0.8111111387914541,0.8111111387914541,0.8111111387914541,0.8111111387914541,0.8111111387914541,0.8111111387914541,0.8111111387914541,0.8111111387914541,0.8111111387914541,0.8111111387914541,0.8111111387914541,0.8111111387914541,0.8111111387914541,0.8111111387914541,0.8111111387914541,0.8111111387914541,0.8111111387914541,0.8111111387914541,0.8111111387914541,0.8111111387914541,0.8111111387914541,0.8111111387914541,0.8111111387914541,0.8111111387914541,0.8111111387914541,0.8111111387914541,0.8111111387914541,0.8111111387914541,0.8111111387914541,0.8111111387914541,0.8111111387914541,0.8111111387914541,0.8111111387914541,0.8111111387914541,0.8111111387914541,0.8111111387914541,0.8111111387914541,0.8111111387914541,0.8111111387914541,0.8111111387914541,0.8111111387914541,0.8111111387914541,0.8111111387914541,0.8111111387914541,0.8111111387914541,0.8111111387914541,0.8111111387914541,0.8111111387914541,0.8111111387914541,0.8111111387914541,0.8111111387914541,0.8111111387914541,0.8111111387914541,0.8111111387914541,0.8111111387914541,0.8111111387914541,0.8111111387914541,0.8111111387914541,0.8111111387914541,0.8111111387914541,0.8111111387914541,0.8111111387914541,0.8111111387914541,0.8111111387914541,0.8111111387914541,0.8111111387914541,0.8111111387914541,0.8111111387914541,0.8111111387914541,0.8111111387914541,0.8111111387914541,0.8111111387914541,0.8111111387914541,0.8111111387914541,0.8111111387914541,0.8111111387914541,0.8111111387914541,0.8111111387914541,0.8111111387914541,0.8111111387914541,0.8111111387914541,0.8111111387914541,0.8111111387914541,0.8111111387914541,0.8111111387914541,0.8111111387914541,0.8111111387914541,0.8111111387914541,0.8111111387914541,0.8111111387914541,0.8111111387914541,0.8111111387914541,0.8111111387914541,0.8111111387914541,0.8111111387914541,0.8111111387914541,0.8111111387914541,0.8111111387914541,0.8111111387914541,0.8111111387914541,0.8111111387914541,0.8111111387914541,0.8111111387914541,0.8111111387914541,0.8111111387914541,0.8111111387914541,0.8111111387914541,0.8111111387914541,0.8111111387914541,0.8111111387914541,0.8111111387914541,0.8111111387914541,0.8111111387914541,0.8111111387914541,0.8111111387914541,0.8111111387914541,0.8111111387914541,0.8111111387914541,0.8111111387914541,0.8111111387914541,0.8111111387914541,0.8111111387914541,0.8111111387914541,0.8111111387914541,0.8111111387914541,0.8111111387914541,0.8111111387914541,0.8111111387914541,0.8111111387914541,0.8111111387914541,0.8111111387914541,0.8111111387914541,0.8111111387914541,0.8111111387914541,0.8111111387914541,0.8111111387914541,0.8111111387914541,0.8111111387914541,0.8111111387914541,0.8111111387914541,0.8111111387914541,0.8111111387914541,0.8111111387914541,0.8111111387914541,0.8111111387914541,0.8111111387914541,0.8111111387914541,0.8111111387914541,0.8111111387914541,0.8111111387914541,0.8111111387914541,0.8111111387914541,0.8111111387914541,0.8111111387914541,0.8111111387914541,0.8111111387914541,0.8111111387914541,0.8111111387914541,0.8111111387914541,0.8111111387914541,0.8111111387914541,0.8111111387914541,0.8111111387914541,0.8111111387914541,0.8111111387914541,0.8111111387914541,0.8111111387914541,0.8111111387914541,0.8111111387914541,0.8111111387914541,0.8111111387914541,0.8111111387914541,0.8111111387914541,0.8111111387914541,0.8111111387914541,0.8111111387914541,0.8111111387914541,0.8111111387914541,0.8111111387914541,0.8111111387914541,0.8111111387914541,0.8111111387914541,0.8111111387914541,0.8111111387914541,0.8111111387914541,0.8111111387914541,0.8111111387914541,0.8111111387914541,0.8111111387914541,0.8111111387914541,0.8111111387914541,0.8111111387914541,0.8111111387914541,0.8111111387914541,0.8111111387914541,0.8111111387914541,0.8111111387914541,0.8111111387914541,0.8111111387914541,0.8111111387914541,0.8111111387914541,0.8111111387914541,0.8111111387914541,0.8111111387914541,0.8111111387914541,0.8111111387914541,0.8111111387914541,0.8111111387914541,0.8111111387914541,0.8111111387914541,0.8111111387914541,0.8111111387914541,0.8111111387914541,0.8111111387914541,0.8111111387914541,0.8111111387914541,0.8111111387914541,0.8111111387914541,0.8111111387914541,0.8111111387914541,0.8111111387914541,0.8111111387914541,0.8111111387914541,0.8111111387914541,0.8111111387914541,0.8111111387914541,0.8111111387914541,0.8111111387914541,0.8111111387914541,0.8111111387914541,0.8111111387914541,0.8111111387914541,0.8111111387914541,0.8111111387914541,0.8111111387914541,0.8111111387914541,0.8111111387914541,0.8111111387914541,0.8111111387914541,0.8111111387914541,0.8111111387914541,0.8111111387914541,0.8111111387914541,0.8111111387914541,0.8111111387914541,0.8111111387914541,0.8111111387914541,0.8111111387914541,0.8111111387914541,0.8111111387914541,0.8111111387914541,0.8111111387914541,0.8111111387914541,0.8111111387914541,0.8111111387914541,0.8111111387914541,0.8111111387914541,0.8111111387914541,0.8111111387914541,0.8111111387914541,0.8111111387914541,0.8111111387914541,0.8111111387914541,0.8111111387914541,0.8111111387914541,0.8111111387914541,0.8111111387914541,0.8111111387914541,0.8111111387914541,0.8111111387914541,0.8111111387914541,0.8111111387914541,0.8111111387914541,0.8111111387914541,0.8111111387914541,0.8111111387914541,0.8111111387914541,0.8111111387914541,0.8111111387914541,0.8111111387914541,0.8111111387914541,0.8111111387914541,0.8111111387914541,0.8111111387914541,0.8111111387914541,0.8111111387914541,0.8111111387914541,0.8111111387914541,0.8111111387914541,0.8111111387914541,0.8111111387914541,0.8111111387914541,0.8111111387914541,0.8111111387914541,0.8111111387914541,0.8111111387914541,0.8111111387914541,0.8111111387914541,0.8111111387914541,0.8111111387914541,0.8111111387914541,0.8111111387914541,0.8111111387914541,0.8111111387914541,0.8111111387914541,0.8111111387914541,0.8111111387914541,0.8111111387914541,0.8111111387914541,0.8111111387914541,0.8111111387914541,0.8111111387914541,0.8111111387914541,0.8111111387914541,0.8111111387914541,0.8111111387914541,0.8111111387914541,0.8111111387914541,0.8111111387914541,0.8111111387914541,0.8111111387914541,0.8111111387914541,0.8111111387914541,0.8111111387914541,0.8111111387914541,0.8111111387914541,0.8111111387914541,0.8111111387914541,0.8111111387914541,0.8111111387914541,0.8111111387914541,0.8111111387914541,0.8111111387914541,0.8111111387914541,0.8111111387914541,0.8111111387914541,0.8111111387914541,0.8111111387914541,0.8111111387914541,0.8111111387914541,0.8111111387914541,0.8111111387914541,0.8111111387914541,0.8111111387914541,0.8111111387914541,0.8111111387914541,0.8111111387914541,0.8111111387914541,0.8111111387914541,0.8111111387914541,0.8111111387914541,0.8111111387914541,0.8111111387914541,0.8111111387914541,0.8111111387914541,0.8111111387914541,0.8111111387914541,0.8111111387914541,0.8111111387914541,0.8111111387914541,0.8111111387914541,0.8111111387914541,0.8111111387914541,0.8111111387914541,0.8111111387914541,0.8111111387914541,0.8111111387914541,0.8111111387914541,0.8111111387914541,0.8111111387914541,0.8111111387914541,0.8111111387914541,0.8111111387914541,0.8111111387914541,0.8111111387914541,0.8111111387914541,0.8111111387914541,0.8111111387914541,0.8111111387914541,0.8111111387914541,0.8111111387914541,0.8111111387914541,0.8111111387914541,0.8111111387914541,0.8111111387914541,0.8111111387914541,0.8111111387914541,0.8111111387914541,0.8111111387914541,0.8111111387914541,0.8111111387914541,0.8111111387914541,0.8111111387914541,0.8111111387914541,0.8111111387914541,0.8111111387914541,0.8111111387914541,0.8111111387914541,0.8111111387914541,0.8111111387914541,0.8111111387914541,0.8111111387914541,0.8111111387914541,0.8111111387914541,0.8111111387914541,0.8111111387914541,0.8111111387914541,0.8111111387914541,0.8111111387914541,0.8111111387914541,0.8111111387914541,0.8111111387914541,0.8111111387914541,0.8111111387914541,0.8111111387914541,0.8111111387914541,0.8111111387914541,0.8111111387914541,0.8111111387914541,0.8111111387914541,0.8111111387914541,0.8111111387914541,0.8111111387914541,0.8111111387914541,0.8111111387914541,0.8111111387914541,0.8111111387914541,0.8111111387914541,0.8111111387914541,0.8111111387914541,0.8111111387914541,0.8111111387914541,0.8111111387914541,0.8111111387914541,0.8111111387914541,0.8111111387914541,0.8111111387914541,0.8111111387914541,0.8111111387914541,0.8111111387914541,0.8111111387914541,0.8111111387914541,0.8111111387914541,0.8111111387914541,0.8111111387914541,0.8111111387914541,0.8111111387914541,0.8111111387914541,0.8111111387914541,0.8111111387914541,0.8111111387914541,0.8111111387914541,-0.009259282326211735,-0.009259282326211735,-0.009259282326211735,-0.009259282326211735,-0.009259282326211735,-0.009259282326211735,-0.009259282326211735,-0.009259282326211735,-0.009259282326211735,-0.009259282326211735,-0.009259282326211735,-0.009259282326211735,-0.009259282326211735,-0.009259282326211735,-0.009259282326211735,-0.009259282326211735,-0.009259282326211735,-0.009259282326211735,-0.009259282326211735,-0.009259282326211735,-0.009259282326211735,-0.009259282326211735,-0.009259282326211735,-0.009259282326211735,-0.009259282326211735,-0.009259282326211735,-0.009259282326211735,-0.009259282326211735,-0.009259282326211735,-0.009259282326211735,-0.009259282326211735,-0.009259282326211735,-0.009259282326211735,-0.009259282326211735,-0.011111138791454082,-0.012962995256696428,-0.012962995256696428,-0.012962995256696428,-0.012962995256696428,-0.012962995256696428,-0.012962995256696428,-0.012962995256696428,-0.012962995256696428,-0.014814851721938775,-0.014814851721938775,-0.014814851721938775,-0.014814851721938775,-0.014814851721938775,-0.014814851721938775,-0.014814851721938775,-0.014814851721938775,-0.014814851721938775,-0.014814851721938775,-0.014814851721938775,-0.014814851721938775,-0.014814851721938775,-0.014814851721938775,-0.016666708187181124,-0.016666708187181124,-0.016666708187181124,-0.01851856465242347,-0.020370358836894132,-0.022222277582908165,-0.024074071767378826,-0.024074071767378826,-0.025925990513392855,-0.025925990513392855,-0.025925990513392855,-0.025925990513392855,-0.025925990513392855,-0.025925990513392855,-0.025925990513392855,-0.025925990513392855,-0.025925990513392855,-0.025925990513392855,-0.025925990513392855,-0.025925990513392855,-0.025925990513392855,-0.025925990513392855,-0.025925990513392855,-0.025925990513392855,-0.025925990513392855,-0.025925990513392855,-0.025925990513392855,-0.02777778469786352,-0.02777778469786352,-0.02777778469786352,-0.02777778469786352,-0.02777778469786352,-0.02777778469786352,-0.02777778469786352,-0.02777778469786352,-0.02777778469786352,-0.02777778469786352,-0.02777778469786352,-0.02777778469786352,-0.02777778469786352,-0.02777778469786352,-0.02777778469786352,-0.02777778469786352,-0.02777778469786352,-0.02777778469786352,-0.02777778469786352,-0.02777778469786352,-0.02777778469786352,-0.02777778469786352,-0.02777778469786352,-0.02777778469786352,-0.02777778469786352,-0.02777778469786352,-0.02777778469786352,-0.02777778469786352,-0.02777778469786352,-0.02777778469786352,-0.02777778469786352,-0.022222277582908165,-0.022222277582908165,-0.022222277582908165,-0.022222277582908165,-0.022222277582908165,-0.022222277582908165,-0.022222277582908165,-0.022222277582908165,-0.022222277582908165,-0.022222277582908165,-0.022222277582908165,-0.022222277582908165,-0.022222277582908165,-0.022222277582908165,-0.022222277582908165,-0.022222277582908165,-0.022222277582908165,-0.022222277582908165,-0.022222277582908165,-0.022222277582908165,-0.022222277582908165,-0.022222277582908165,-0.022222277582908165,-0.022222277582908165,-0.022222277582908165,-0.022222277582908165,-0.022222277582908165,-0.022222277582908165,-0.022222277582908165,-0.022222277582908165,-0.022222277582908165,-0.022222277582908165,-0.022222277582908165,-0.022222277582908165,-0.022222277582908165,-0.022222277582908165,-0.022222277582908165,-0.022222277582908165,-0.022222277582908165,-0.022222277582908165,-0.022222277582908165,-0.022222277582908165,-0.022222277582908165,-0.022222277582908165,-0.022222277582908165,-0.022222277582908165,-0.022222277582908165,-0.022222277582908165,-0.022222277582908165,-0.022222277582908165,-0.022222277582908165,-0.022222277582908165,-0.022222277582908165,-0.022222277582908165,-0.022222277582908165,-0.022222277582908165,-0.022222277582908165,-0.022222277582908165,-0.022222277582908165,-0.022222277582908165,-0.022222277582908165,-0.022222277582908165,-0.022222277582908165,-0.022222277582908165,-0.022222277582908165,-0.022222277582908165,-0.022222277582908165,-0.022222277582908165,-0.022222277582908165,-0.022222277582908165,-0.022222277582908165,-0.022222277582908165,-0.022222277582908165,-0.022222277582908165,-0.022222277582908165,-0.022222277582908165,-0.022222277582908165,-0.022222277582908165,-0.022222277582908165,-0.022222277582908165,-0.022222277582908165,-0.022222277582908165,-0.022222277582908165,-0.022222277582908165,-0.022222277582908165,-0.022222277582908165,-0.022222277582908165,-0.022222277582908165,-0.022222277582908165,-0.022222277582908165,-0.022222277582908165,-0.022222277582908165,-0.022222277582908165,-0.022222277582908165,-0.022222277582908165,-0.022222277582908165,-0.022222277582908165,-0.022222277582908165,-0.022222277582908165,-0.022222277582908165,-0.022222277582908165,-0.022222277582908165,-0.022222277582908165,-0.022222277582908165,-0.022222277582908165,-0.022222277582908165,-0.022222277582908165,-0.022222277582908165,-0.022222277582908165,-0.022222277582908165,-0.022222277582908165,-0.022222277582908165,-0.022222277582908165,-0.022222277582908165,-0.022222277582908165,-0.022222277582908165,-0.022222277582908165,-0.022222277582908165,-0.022222277582908165,-0.022222277582908165,-0.022222277582908165,-0.022222277582908165,-0.022222277582908165,-0.022222277582908165,-0.022222277582908165,-0.022222277582908165,-0.022222277582908165,-0.022222277582908165,-0.022222277582908165,-0.022222277582908165,-0.022222277582908165,-0.022222277582908165,-0.022222277582908165,-0.022222277582908165,-0.022222277582908165,-0.022222277582908165,-0.022222277582908165,-0.022222277582908165,-0.022222277582908165,-0.022222277582908165,-0.022222277582908165,-0.022222277582908165,-0.022222277582908165,-0.022222277582908165,-0.022222277582908165,-0.022222277582908165,-0.022222277582908165,-0.022222277582908165,-0.022222277582908165,-0.022222277582908165,-0.022222277582908165,-0.022222277582908165,-0.022222277582908165,-0.022222277582908165,-0.022222277582908165,-0.012962995256696428,-0.012962995256696428,-0.012962995256696428,-0.012962995256696428,-0.012962995256696428,-0.012962995256696428,-0.012962995256696428,-0.012962995256696428,-0.012962995256696428,-0.012962995256696428,-0.012962995256696428,-0.012962995256696428,-0.012962995256696428,-0.012962995256696428,-0.012962995256696428,-0.012962995256696428,-0.012962995256696428,-0.012962995256696428,-0.012962995256696428,-0.012962995256696428,-0.012962995256696428,-0.012962995256696428,-0.012962995256696428,-0.012962995256696428,-0.012962995256696428,-0.012962995256696428,-0.011111138791454082,-0.011111138791454082,-0.011111138791454082,-0.011111138791454082,-0.009259282326211735,-0.009259282326211735,-0.007407425860969387,-0.007407425860969387,-0.005555569395727041,-0.005555569395727041,-0.005555569395727041,-0.005555569395727041,-0.005555569395727041,-0.005555569395727041,-0.005555569395727041,-0.005555569395727041,-0.005555569395727041,-0.005555569395727041,-0.005555569395727041,-0.005555569395727041,-0.005555569395727041,-0.005555569395727041,-0.005555569395727041,-0.005555569395727041,-0.005555569395727041,-0.005555569395727041,-0.005555569395727041,-0.005555569395727041,-0.005555569395727041,-0.005555569395727041,-0.005555569395727041,-0.0037037129304846937,-0.007407425860969387,-0.01851856465242347,-0.03333341637436225,-0.05555556939572704,-0.07777778469786352,-0.09814808125398597,-0.11666670818718113,-0.1388889234893176,-0.16111113879145408,-0.17962970344387755,-0.1888889234893176,-0.21111113879145407,-0.24814808125398596,-0.27037035883689414,-0.28333329181281885,-0.3037037129304847,-0.31851856465242345,-0.33518521055883294,-0.35,-0.36296299525669645,-0.3777777846978635,-0.39074071767378826,-0.39814814353475764,-0.4092592823262117,-0.4185185646524235]","[-0.8096664104055851,-0.8006565824468085,-0.8006565824468085,-0.8006565824468085,-0.8006565824468085,-0.8006565824468085,-0.8006565824468085,-0.8006565824468085,-0.8006565824468085,-0.8006565824468085,-0.8006565824468085,-0.8006565824468085,-0.8006565824468085,-0.8006565824468085,-0.8006565824468085,-0.8006565824468085,-0.8006565824468085,-0.8006565824468085,-0.8006565824468085,-0.8006565824468085,-0.8006565824468085,-0.8006565824468085,-0.8006565824468085,-0.8006565824468085,-0.8006565824468085,-0.8006565824468085,-0.8006565824468085,-0.8006565824468085,-0.8006565824468085,-0.8006565824468085,-0.8006565824468085,-0.8006565824468085,-0.8006565824468085,-0.8006565824468085,-0.8006565824468085,-0.8006565824468085,-0.8006565824468085,-0.8006565824468085,-0.8006565824468085,-0.8006565824468085,-0.8006565824468085,-0.8006565824468085,-0.8006565824468085,-0.8006565824468085,-0.8006565824468085,-0.8006565824468085,-0.8006565824468085,-0.8006565824468085,-0.8006565824468085,-0.8006565824468085,-0.8006565824468085,-0.8006565824468085,-0.8006565824468085,-0.8006565824468085,-0.8006565824468085,-0.8006565824468085,-0.8006565824468085,-0.8006565824468085,-0.8006565824468085,-0.8006565824468085,-0.8006565824468085,-0.8006565824468085,-0.8006565824468085,-0.8006565824468085,-0.8006565824468085,-0.8006565824468085,-0.8006565824468085,-0.8006565824468085,-0.8006565824468085,-0.8006565824468085,-0.8006565824468085,-0.8006565824468085,-0.8006565824468085,-0.8006565824468085,-0.8006565824468085,-0.8006565824468085,-0.8006565824468085,-0.8006565824468085,-0.8006565824468085,-0.8006565824468085,-0.8006565824468085,-0.8006565824468085,-0.8006565824468085,-0.8006565824468085,-0.8006565824468085,-0.8006565824468085,-0.8006565824468085,-0.8006565824468085,-0.8006565824468085,-0.8006565824468085,-0.8006565824468085,-0.8006565824468085,-0.8006565824468085,-0.8006565824468085,-0.8006565824468085,-0.8006565824468085,-0.8006565824468085,-0.8006565824468085,-0.8006565824468085,-0.8006565824468085,-0.8006565824468085,-0.8006565824468085,-0.8006565824468085,-0.8006565824468085,-0.8006565824468085,-0.8006565824468085,-0.8006565824468085,-0.8006565824468085,-0.8006565824468085,-0.8006565824468085,-0.8006565824468085,-0.8006565824468085,-0.8006565824468085,-0.8006565824468085,-0.8006565824468085,-0.8006565824468085,-0.8006565824468085,-0.8006565824468085,-0.8006565824468085,-0.8006565824468085,-0.8006565824468085,-0.8006565824468085,-0.8006565824468085,-0.8006565824468085,-0.8006565824468085,-0.8006565824468085,-0.8006565824468085,-0.8006565824468085,-0.8006565824468085,-0.8006565824468085,-0.8006565824468085,-0.8006565824468085,-0.8006565824468085,-0.8006565824468085,-0.8006565824468085,-0.8006565824468085,-0.8006565824468085,-0.8006565824468085,-0.8006565824468085,-0.8006565824468085,-0.8006565824468085,-0.8006565824468085,-0.8006565824468085,-0.8006565824468085,-0.8006565824468085,-0.8006565824468085,-0.8006565824468085,-0.8006565824468085,-0.8006565824468085,-0.8006565824468085,-0.8006565824468085,-0.8006565824468085,-0.8006565824468085,-0.8006565824468085,-0.8006565824468085,-0.8006565824468085,-0.8006565824468085,-0.8006565824468085,-0.8006565824468085,-0.8006565824468085,-0.8006565824468085,-0.8006565824468085,-0.8006565824468085,-0.8006565824468085,-0.8006565824468085,-0.8006565824468085,-0.8006565824468085,-0.8006565824468085,-0.8006565824468085,-0.8006565824468085,-0.8006565824468085,-0.8006565824468085,-0.8006565824468085,-0.8006565824468085,-0.8006565824468085,-0.8006565824468085,-0.8006565824468085,-0.8006565824468085,-0.8006565824468085,-0.8006565824468085,-0.8006565824468085,-0.8006565824468085,-0.8006565824468085,-0.8006565824468085,-0.8006565824468085,-0.8006565824468085,-0.8006565824468085,-0.8006565824468085,-0.8006565824468085,-0.8006565824468085,-0.8006565824468085,-0.8006565824468085,-0.8006565824468085,-0.8006565824468085,-0.8006565824468085,-0.8006565824468085,-0.8006565824468085,-0.8006565824468085,-0.8006565824468085,-0.8006565824468085,-0.8006565824468085,-0.8006565824468085,-0.8006565824468085,-0.8006565824468085,-0.8006565824468085,-0.8006565824468085,-0.8006565824468085,-0.8006565824468085,-0.8006565824468085,-0.8006565824468085,-0.8006565824468085,-0.8006565824468085,-0.8006565824468085,-0.8006565824468085,-0.8006565824468085,-0.8006565824468085,-0.8006565824468085,-0.8006565824468085,-0.8006565824468085,-0.8006565824468085,-0.8006565824468085,-0.8006565824468085,-0.8006565824468085,-0.8006565824468085,-0.8006565824468085,-0.8006565824468085,-0.8006565824468085,-0.8006565824468085,-0.8006565824468085,-0.8006565824468085,-0.8006565824468085,-0.8006565824468085,-0.8006565824468085,-0.8006565824468085,-0.8006565824468085,-0.8006565824468085,-0.8006565824468085,-0.8006565824468085,-0.8006565824468085,-0.8006565824468085,-0.8006565824468085,-0.8006565824468085,-0.8006565824468085,-0.8006565824468085,-0.8006565824468085,-0.8006565824468085,-0.8006565824468085,-0.8006565824468085,-0.8006565824468085,-0.8006565824468085,-0.8006565824468085,-0.8006565824468085,-0.8006565824468085,-0.8006565824468085,-0.8006565824468085,-0.8006565824468085,-0.8006565824468085,-0.8006565824468085,-0.8006565824468085,-0.8006565824468085,-0.8006565824468085,-0.8006565824468085,-0.8006565824468085,-0.8006565824468085,-0.8006565824468085,-0.8006565824468085,-0.8006565824468085,-0.8006565824468085,-0.8006565824468085,-0.8006565824468085,-0.8006565824468085,-0.8006565824468085,-0.8006565824468085,-0.8006565824468085,-0.8006565824468085,-0.8006565824468085,-0.8006565824468085,-0.8006565824468085,-0.8006565824468085,-0.8006565824468085,-0.8006565824468085,-0.8006565824468085,-0.8006565824468085,-0.8006565824468085,-0.8006565824468085,-0.8006565824468085,-0.8006565824468085,-0.8006565824468085,-0.8006565824468085,-0.8006565824468085,-0.8006565824468085,-0.8006565824468085,-0.8006565824468085,-0.8006565824468085,-0.8006565824468085,-0.8006565824468085,-0.8006565824468085,-0.8006565824468085,-0.8006565824468085,-0.8006565824468085,-0.8006565824468085,-0.8006565824468085,-0.8006565824468085,-0.8006565824468085,-0.8006565824468085,-0.8006565824468085,-0.8006565824468085,-0.8006565824468085,-0.8006565824468085,-0.8006565824468085,-0.8006565824468085,-0.8006565824468085,-0.8006565824468085,-0.8006565824468085,-0.8006565824468085,-0.8006565824468085,-0.8006565824468085,-0.8006565824468085,-0.8006565824468085,-0.8006565824468085,-0.8006565824468085,-0.8006565824468085,-0.8006565824468085,-0.8006565824468085,-0.8006565824468085,-0.8006565824468085,-0.8006565824468085,-0.8006565824468085,-0.8006565824468085,-0.8006565824468085,-0.8006565824468085,-0.8006565824468085,-0.8006565824468085,-0.8006565824468085,-0.8006565824468085,-0.8006565824468085,-0.8006565824468085,-0.8006565824468085,-0.8006565824468085,-0.8006565824468085,-0.8006565824468085,-0.8006565824468085,-0.8006565824468085,-0.8006565824468085,-0.8006565824468085,-0.8006565824468085,-0.8006565824468085,-0.8006565824468085,-0.8006565824468085,-0.8006565824468085,-0.8006565824468085,-0.8006565824468085,-0.8006565824468085,-0.8006565824468085,-0.8006565824468085,-0.8006565824468085,-0.8006565824468085,-0.8006565824468085,-0.8006565824468085,-0.8006565824468085,-0.8006565824468085,-0.8006565824468085,-0.8006565824468085,-0.8006565824468085,-0.8006565824468085,-0.8006565824468085,-0.8006565824468085,-0.8006565824468085,-0.8006565824468085,-0.8006565824468085,-0.8006565824468085,-0.8006565824468085,-0.8006565824468085,-0.8006565824468085,-0.8006565824468085,-0.8006565824468085,-0.8006565824468085,-0.8006565824468085,-0.8006565824468085,-0.8006565824468085,-0.8006565824468085,-0.8006565824468085,-0.8006565824468085,-0.8006565824468085,-0.8006565824468085,-0.8006565824468085,-0.8006565824468085,-0.8006565824468085,-0.8006565824468085,-0.8006565824468085,-0.8006565824468085,-0.8006565824468085,-0.8006565824468085,-0.8006565824468085,-0.8006565824468085,-0.8006565824468085,-0.8006565824468085,-0.8006565824468085,-0.8006565824468085,-0.8006565824468085,-0.8006565824468085,-0.8006565824468085,-0.8006565824468085,-0.8006565824468085,-0.8006565824468085,-0.8006565824468085,-0.8006565824468085,-0.8006565824468085,-0.8006565824468085,-0.8006565824468085,-0.8006565824468085,-0.8006565824468085,-0.8006565824468085,-0.8006565824468085,-0.8006565824468085,-0.8006565824468085,-0.8006565824468085,-0.8006565824468085,-0.8006565824468085,-0.8006565824468085,-0.8006565824468085,-0.8006565824468085,-0.8006565824468085,-0.8006565824468085,-0.8006565824468085,-0.8006565824468085,-0.8006565824468085,-0.8006565824468085,-0.8006565824468085,-0.8006565824468085,-0.8006565824468085,-0.8006565824468085,-0.8006565824468085,-0.8006565824468085,-0.8006565824468085,-0.8006565824468085,-0.8006565824468085,-0.8006565824468085,-0.8006565824468085,-0.8006565824468085,-0.8006565824468085,-0.8006565824468085,-0.8006565824468085,-0.8006565824468085,-0.8006565824468085,-0.8006565824468085,-0.8006565824468085,-0.8006565824468085,-0.8006565824468085,-0.8006565824468085,-0.8006565824468085,-0.8006565824468085,-0.8006565824468085,-0.8006565824468085,-0.8006565824468085,-0.8006565824468085,-0.8006565824468085,-0.8006565824468085,-0.8006565824468085,-0.8006565824468085,-0.8006565824468085,-0.8006565824468085,-0.8006565824468085,-0.8006565824468085,-0.8006565824468085,-0.8006565824468085,-0.8006565824468085,-0.8006565824468085,-0.8006565824468085,-0.8006565824468085,-0.8006565824468085,-0.8006565824468085,-0.8006565824468085,-0.8006565824468085,-0.8006565824468085,-0.8006565824468085,-0.8006565824468085,-0.8006565824468085,-0.8006565824468085,-0.8006565824468085,-0.8006565824468085,-0.8006565824468085,-0.8006565824468085,-0.8006565824468085,-0.8006565824468085,-0.8006565824468085,-0.8006565824468085,-0.8006565824468085,-0.8006565824468085,-0.8006565824468085,-0.8006565824468085,-0.8006565824468085,-0.8006565824468085,-0.8006565824468085,-0.8006565824468085,-0.8006565824468085,-0.8006565824468085,-0.8006565824468085,-0.8006565824468085,-0.8006565824468085,-0.8006565824468085,-0.8006565824468085,-0.8006565824468085,-0.8006565824468085,-0.8006565824468085,-0.8006565824468085,-0.8006565824468085,-0.8006565824468085,-0.8006565824468085,-0.8006565824468085,-0.8006565824468085,-0.8006565824468085,-0.8006565824468085,-0.8006565824468085,-0.8006565824468085,-0.8006565824468085,-0.8006565824468085,-0.8006565824468085,-0.8006565824468085,-0.8006565824468085,-0.8006565824468085,-0.8006565824468085,-0.611452619403812,-0.611452619403812,-0.611452619403812,-0.611452619403812,-0.611452619403812,-0.611452619403812,-0.611452619403812,-0.611452619403812,-0.611452619403812,-0.611452619403812,-0.611452619403812,-0.611452619403812,-0.611452619403812,-0.611452619403812,-0.611452619403812,-0.611452619403812,-0.611452619403812,-0.611452619403812,-0.611452619403812,-0.611452619403812,-0.611452619403812,-0.611452619403812,-0.611452619403812,-0.611452619403812,-0.611452619403812,-0.611452619403812,-0.611452619403812,-0.611452619403812,-0.611452619403812,-0.611452619403812,-0.611452619403812,-0.611452619403812,-0.611452619403812,-0.611452619403812,-0.6050170032690603,-0.6011557721077128,-0.6011557721077128,-0.5985815602836879,-0.5972943677969859,-0.5972943677969859,-0.5960073484596631,-0.5960073484596631,-0.5947203291223404,-0.5934331366356383,-0.5921459441489362,-0.5908589248116135,-0.5908589248116135,-0.5908589248116135,-0.5908589248116135,-0.5908589248116135,-0.5908589248116135,-0.5908589248116135,-0.5908589248116135,-0.5908589248116135,-0.5908589248116135,-0.5908589248116135,-0.5908589248116135,-0.5908589248116135,-0.5908589248116135,-0.5908589248116135,-0.5908589248116135,-0.5908589248116135,-0.5908589248116135,-0.5908589248116135,-0.5908589248116135,-0.5908589248116135,-0.5908589248116135,-0.5908589248116135,-0.5908589248116135,-0.5908589248116135,-0.5908589248116135,-0.5908589248116135,-0.5908589248116135,-0.5908589248116135,-0.5908589248116135,-0.5908589248116135,-0.5908589248116135,-0.5908589248116135,-0.5908589248116135,-0.5908589248116135,-0.5908589248116135,-0.5908589248116135,-0.5908589248116135,-0.5908589248116135,-0.5921459441489362,-0.5921459441489362,-0.5921459441489362,-0.5921459441489362,-0.5921459441489362,-0.5921459441489362,-0.5921459441489362,-0.5921459441489362,-0.5921459441489362,-0.5921459441489362,-0.5921459441489362,-0.5921459441489362,-0.5921459441489362,-0.5921459441489362,-0.5921459441489362,-0.5921459441489362,-0.5921459441489362,-0.5921459441489362,-0.5921459441489362,-0.5921459441489362,-0.5921459441489362,-0.5921459441489362,-0.5921459441489362,-0.5921459441489362,-0.5921459441489362,-0.5921459441489362,-0.5921459441489362,-0.5921459441489362,-0.5921459441489362,-0.5921459441489362,-0.5921459441489362,-0.5857105011635638,-0.5857105011635638,-0.5857105011635638,-0.5857105011635638,-0.5857105011635638,-0.5857105011635638,-0.5857105011635638,-0.5857105011635638,-0.5857105011635638,-0.5857105011635638,-0.5857105011635638,-0.5857105011635638,-0.5857105011635638,-0.5857105011635638,-0.5857105011635638,-0.5857105011635638,-0.5857105011635638,-0.5857105011635638,-0.5857105011635638,-0.5857105011635638,-0.5857105011635638,-0.5857105011635638,-0.5857105011635638,-0.5857105011635638,-0.5857105011635638,-0.5857105011635638,-0.5857105011635638,-0.5857105011635638,-0.5857105011635638,-0.5857105011635638,-0.5857105011635638,-0.5857105011635638,-0.5857105011635638,-0.5857105011635638,-0.5857105011635638,-0.5857105011635638,-0.5857105011635638,-0.5857105011635638,-0.5857105011635638,-0.5857105011635638,-0.5857105011635638,-0.5857105011635638,-0.5857105011635638,-0.5857105011635638,-0.5857105011635638,-0.5857105011635638,-0.5857105011635638,-0.5857105011635638,-0.5857105011635638,-0.5857105011635638,-0.5857105011635638,-0.5857105011635638,-0.5857105011635638,-0.5857105011635638,-0.5857105011635638,-0.5857105011635638,-0.5857105011635638,-0.5857105011635638,-0.5857105011635638,-0.5857105011635638,-0.5857105011635638,-0.5857105011635638,-0.5857105011635638,-0.5857105011635638,-0.5857105011635638,-0.5857105011635638,-0.5857105011635638,-0.5857105011635638,-0.5857105011635638,-0.5857105011635638,-0.5857105011635638,-0.5857105011635638,-0.5857105011635638,-0.5857105011635638,-0.5857105011635638,-0.5857105011635638,-0.5857105011635638,-0.5857105011635638,-0.5857105011635638,-0.5857105011635638,-0.5857105011635638,-0.5857105011635638,-0.5857105011635638,-0.5857105011635638,-0.5857105011635638,-0.5857105011635638,-0.5857105011635638,-0.5857105011635638,-0.5857105011635638,-0.5857105011635638,-0.5857105011635638,-0.5857105011635638,-0.5857105011635638,-0.5857105011635638,-0.5857105011635638,-0.5857105011635638,-0.5857105011635638,-0.5857105011635638,-0.5857105011635638,-0.5857105011635638,-0.5857105011635638,-0.5857105011635638,-0.5857105011635638,-0.5857105011635638,-0.5857105011635638,-0.5857105011635638,-0.5857105011635638,-0.5857105011635638,-0.5857105011635638,-0.5857105011635638,-0.5857105011635638,-0.5857105011635638,-0.5857105011635638,-0.5857105011635638,-0.5857105011635638,-0.5857105011635638,-0.5857105011635638,-0.5857105011635638,-0.5857105011635638,-0.5857105011635638,-0.5857105011635638,-0.5857105011635638,-0.5857105011635638,-0.5857105011635638,-0.5857105011635638,-0.5857105011635638,-0.5857105011635638,-0.5857105011635638,-0.5857105011635638,-0.5857105011635638,-0.5857105011635638,-0.5857105011635638,-0.5857105011635638,-0.5857105011635638,-0.5857105011635638,-0.5857105011635638,-0.5857105011635638,-0.5857105011635638,-0.5857105011635638,-0.5857105011635638,-0.5857105011635638,-0.5857105011635638,-0.5857105011635638,-0.5857105011635638,-0.5857105011635638,-0.5857105011635638,-0.5857105011635638,-0.5857105011635638,-0.5857105011635638,-0.5857105011635638,-0.5857105011635638,-0.5857105011635638,-0.5857105011635638,-0.5857105011635638,-0.5857105011635638,-0.583136289339539,-0.583136289339539,-0.583136289339539,-0.583136289339539,-0.583136289339539,-0.583136289339539,-0.583136289339539,-0.583136289339539,-0.583136289339539,-0.583136289339539,-0.583136289339539,-0.583136289339539,-0.583136289339539,-0.583136289339539,-0.583136289339539,-0.583136289339539,-0.583136289339539,-0.583136289339539,-0.583136289339539,-0.583136289339539,-0.583136289339539,-0.583136289339539,-0.583136289339539,-0.583136289339539,-0.583136289339539,-0.583136289339539,-0.5767008463541666,-0.5767008463541666,-0.5767008463541666,-0.5767008463541666,-0.5728394420434397,-0.5728394420434397,-0.5689782108820922,-0.56769101839539,-0.5651169797207447,-0.5638297872340425,-0.5625425947473405,-0.5612555754100177,-0.5612555754100177,-0.5612555754100177,-0.559968556072695,-0.559968556072695,-0.559968556072695,-0.559968556072695,-0.558681363585993,-0.5573941710992908,-0.5561071517619681,-0.5548201324246453,-0.5535329399379433,-0.5509587281139184,-0.5483845162898936,-0.5458103044658688,-0.5419490733045212,-0.5355134571697695,-0.5290780141843971,-0.5213553787123227,-0.5084843195921985,-0.45313885195035464,-0.4080904047539894,-0.34630940755208334,-0.2871027087488918,-0.22789592337101064,-0.1622536950077571,-0.10433410211657801,-0.05285003878546099,-0.003940100703679078,0.05011826102615248,0.10675074800531915,0.12605725011081562,0.1839769295766844,0.274074083693484,0.32040980995124113,0.3461517983294548,0.38347782649046985,0.41951661887743796,0.4491200548537234,0.4787234042553192,0.5083267969442598,0.5340688286098183,0.5585237976507093,0.5726819193955008,0.5932755707003546,0.6100078609818262]","[1,0,0,0,0,0,0,0,0,0,0,0,0,0,0,0,0,0,0,0,0,0,0,0,0,0,0,0,0,0,0,0,0,0,0,0,0,0,0,0,0,0,0,0,0,0,0,0,0,0,0,0,0,0,0,0,0,0,0,0,0,0,0,0,0,0,0,0,0,0,0,0,0,0,0,0,0,0,0,0,0,0,0,0,0,0,0,0,0,0,0,0,0,0,0,0,0,0,0,0,0,0,0,0,0,0,0,0,0,0,0,0,0,0,0,0,0,0,0,0,0,0,0,0,0,0,0,0,0,0,0,0,0,0,0,0,0,0,0,0,0,0,0,0,0,0,0,0,0,0,0,0,0,0,0,0,0,0,0,0,0,0,0,0,0,0,0,0,0,0,0,0,0,0,0,0,0,0,0,0,0,0,0,0,0,0,0,0,0,0,0,0,0,0,0,0,0,0,0,0,0,0,0,0,0,0,0,0,0,0,0,0,0,0,0,0,0,0,0,0,0,0,0,0,0,0,0,0,0,0,0,0,0,0,0,0,0,0,0,0,0,0,0,0,0,0,0,0,0,0,0,0,0,0,0,0,0,0,0,0,0,0,0,0,0,0,0,0,0,0,0,0,0,0,0,0,0,0,0,0,0,0,0,0,0,0,0,0,0,0,0,0,0,0,0,0,0,0,0,0,0,0,0,0,0,0,0,0,0,0,0,0,0,0,0,0,0,0,0,0,0,0,0,0,0,0,0,0,0,0,0,0,0,0,0,0,0,0,0,0,0,0,0,0,0,0,0,0,0,0,0,0,0,0,0,0,0,0,0,0,0,0,0,0,0,0,0,0,0,0,0,0,0,0,0,0,0,0,0,0,0,0,0,0,0,0,0,0,0,0,0,0,0,0,0,0,0,0,0,0,0,0,0,0,0,0,0,0,0,0,0,0,0,0,0,0,0,0,0,0,0,0,0,0,0,0,0,0,0,0,0,0,0,0,0,0,0,0,0,0,0,0,0,0,0,0,0,0,0,0,0,0,0,0,0,0,0,0,0,0,0,0,0,0,0,0,0,0,0,0,0,0,0,0,0,0,0,0,0,0,0,0,0,0,0,0,0,0,0,0,0,0,0,0,0,0,0,0,0,0,0,0,0,0,0,0,0,0,0,0,0,0,0,0,0,0,0,0,0,0,0,0,1,1,1,1,1,1,1,1,1,1,1,1,1,1,1,1,1,1,1,1,1,1,1,1,1,1,1,1,1,1,1,1,1,1,1,1,1,1,1,1,1,1,1,1,1,1,1,1,1,1,1,1,1,1,1,1,1,1,1,1,1,1,1,1,1,1,1,1,1,1,1,1,1,1,1,1,1,1,1,1,1,1,1,1,1,1,1,1,1,1,1,1,1,1,1,1,1,1,1,1,1,1,1,1,1,1,1,1,1,1,1,1,1,1,1,1,1,1,1,1,1,1,1,1,1,1,1,1,1,1,1,1,1,1,1,1,1,1,1,1,1,1,1,1,1,1,1,1,1,1,1,1,1,1,1,1,1,1,1,1,1,1,1,1,1,1,1,1,1,1,1,1,1,1,1,1,1,1,1,1,1,1,1,1,1,1,1,1,1,1,1,1,1,1,1,1,1,1,1,1,1,1,1,1,1,1,1,1,1,1,1,1,1,1,1,1,1,1,1,1,1,1,1,1,1,1,1,1,1,1,1,1,1,1,1,1,1,1,1,1,1,1,1,1,1,1,1,1,1,1,1,1,1,1,1,1,1,1,1,1,1,1,1,1,1,1,1,1,1,1,1,1,1,1,1,1,1,1,1,1,1,1,1,1,1,1,1,1,1,1,1,1,1,1,1,1,1,1,1,1,1,1,1,1,1,1,1,1,1,1,1,1,1,1,1,1,1,1,1,1,1,1,1,1,1,1,1,1,1,1,1,1,1,1,1,1,1,1,1,1,1,1,1,1,1,1,1,1,1,1,1,1,1]","[0,0,0,0,0,0,0,0,0,0,0,0,0,0,0,0,0,0,0,0,0,0,0,0,0,0,0,0,0,0,0,0,0,0,0,0,0,0,0,0,0,0,0,0,0,0,0,0,0,0,0,0,0,0,0,0,0,0,0,0,0,0,0,0,0,0,0,0,0,0,0,0,0,0,0,0,0,0,0,0,0,0,0,0,0,0,0,0,0,0,0,0,0,0,0,0,0,0,0,0,0,0,0,0,0,0,0,0,0,0,0,0,0,0,0,0,0,0,0,0,0,0,0,0,0,0,0,0,0,0,0,0,0,0,0,0,0,0,0,0,0,0,0,0,0,0,0,0,0,0,0,0,0,0,0,0,0,0,0,0,0,0,0,0,0,0,0,0,0,0,0,0,0,0,0,0,0,0,0,0,0,0,0,0,0,0,0,0,0,0,0,0,0,0,0,0,0,0,0,0,0,0,0,0,0,0,0,0,0,0,0,0,0,0,0,0,0,0,0,0,0,0,0,0,0,0,0,0,0,0,0,0,0,0,0,0,0,0,0,0,0,0,0,0,0,0,0,0,0,0,0,0,0,0,0,0,0,0,0,0,0,0,0,0,0,0,0,0,0,0,0,0,0,0,0,0,0,0,0,0,0,0,0,0,0,0,0,0,0,0,0,0,0,0,0,0,0,0,0,0,0,0,0,0,0,0,0,0,0,0,0,0,0,0,0,0,0,0,0,0,0,0,0,0,0,0,0,0,0,0,0,0,0,0,0,0,0,0,0,0,0,0,0,0,0,0,0,0,0,0,0,0,0,0,0,0,0,0,0,0,0,0,0,0,0,0,0,0,0,0,0,0,0,0,0,0,0,0,0,0,0,0,0,0,0,0,0,0,0,0,0,0,0,0,0,0,0,0,0,0,0,0,0,0,0,0,0,0,0,0,0,0,0,0,0,0,0,0,0,0,0,0,0,0,0,0,0,0,0,0,0,0,0,0,0,0,0,0,0,0,0,0,0,0,0,0,0,0,0,0,0,0,0,0,0,0,0,0,0,0,0,0,0,0,0,0,0,0,0,0,0,0,0,0,0,0,0,0,0,0,0,0,0,0,0,0,0,0,0,0,0,0,0,0,0,0,0,0,0,0,0,0,0,0,0,0,0,0,0,0,0,0,0,0,0,0,0,0,0,0,0,0,0,0,0,0,0,0,0,0,0,0,0,0,0,0,0,0,0,0,0,0,0,0,0,0,0,0,0,0,0,0,0,0,0,0,0,0,0,0,0,0,0,0,0,0,0,0,0,0,0,0,0,0,0,0,0,0,0,0,0,0,0,0,0,0,0,0,0,0,0,0,0,0,0,0,0,0,0,0,0,0,0,0,0,0,0,0,0,0,0,0,0,0,0,0,0,0,0,0,0,0,0,0,0,0,0,0,0,0,0,0,0,0,0,0,0,0,0,0,0,0,0,0,0,0,0,0,0,0,0,0,0,0,0,0,0,0,0,0,0,0,0,0,0,0,0,0,0,0,0,0,0,0,0,0,0,0,0,0,0,0,0,0,0,0,0,0,0,0,0,0,0,0,0,0,0,0,0,0,0,0,0,0,0,0,0,0,0,0,0,0,0,0,0,0,0,0,0,0,0,0,0,0,0,0,0,0,0,0,0,0,0,0,0,0,0,0,0,0,0,0,0,0,0,0,0,0,0,0,0,0,0,0,0,0,0,0,0,0,0,0,0,0,0,0,0,0,0,0,0,0,0,0,0,0,0,0,0,0,0,0,0,0,0,0,0,0,0,0,0,0,0,0,0,0,0,0,0,0,0,0,0,0,0,0,0,0,0,0,0,0,0,0,0,0,0,0,0,0,0,0,0,0,0,0,0,0,0,0,0,0,0,0,0,0,0,0,0,0,0,0,0,0,0,0,0,0,0,0,0,0,0,0,0,0,0,0,0,0,0,0,0,0,0,0,0,0,0,0,0,0,0,0,0]","[0,0,0,0,0,0,0,0,0,0,0,0,0,0,0,0,0,0,0,0,0,0,0,0,0,0,0,0,0,0,0,0,0,0,0,0,0,0,0,0,0,0,0,0,0,0,0,0,0,0,0,0,0,0,0,0,0,0,0,0,0,0,0,0,0,0,0,0,0,0,0,0,0,0,0,0,0,0,0,0,0,0,0,0,0,0,0,0,0,0,0,0,0,0,0,0,0,0,0,0,0,0,0,0,0,0,0,0,0,0,0,0,0,0,0,0,0,0,0,0,0,0,0,0,0,0,0,0,0,0,0,0,0,0,0,0,0,0,0,0,0,0,0,0,0,0,0,0,0,0,0,0,0,0,0,0,0,0,0,0,0,0,0,0,0,0,0,0,0,0,0,0,0,0,0,0,0,0,0,0,0,0,0,0,0,0,0,0,0,0,0,0,0,0,0,0,0,0,0,0,0,0,0,0,0,0,0,0,0,0,0,0,0,0,0,0,0,0,0,0,0,0,0,0,0,0,0,0,0,0,0,0,0,0,0,0,0,0,0,0,0,0,0,0,0,0,0,0,0,0,0,0,0,0,0,0,0,0,0,0,0,0,0,0,0,0,0,0,0,0,0,0,0,0,0,0,0,0,0,0,0,0,0,0,0,0,0,0,0,0,0,0,0,0,0,0,0,0,0,0,0,0,0,0,0,0,0,0,0,0,0,0,0,0,0,0,0,0,0,0,0,0,0,0,0,0,0,0,0,0,0,0,0,0,0,0,0,0,0,0,0,0,0,0,0,0,0,0,0,0,0,0,0,0,0,0,0,0,0,0,0,0,0,0,0,0,0,0,0,0,0,0,0,0,0,0,0,0,0,0,0,0,0,0,0,0,0,0,0,0,0,0,0,0,0,0,0,0,0,0,0,0,0,0,0,0,0,0,0,0,0,0,0,0,0,0,0,0,0,0,0,0,0,0,0,0,0,0,0,0,0,0,0,0,0,0,0,0,0,0,0,0,0,0,0,0,0,0,0,0,0,0,0,0,0,0,0,0,0,0,0,0,0,0,0,0,0,0,0,0,0,0,0,0,0,0,0,0,0,0,0,0,0,0,0,0,0,0,0,0,0,0,0,0,0,0,0,0,0,0,0,0,0,0,0,0,0,0,0,0,0,0,0,0,0,0,0,0,0,0,0,0,0,0,0,0,0,0,0,0,0,0,0,0,0,0,0,0,0,0,0,0,0,0,0,0,0,0,0,0,0,0,0,0,0,0,0,0,0,0,0,0,0,0,0,0,0,0,0,0,0,0,0,0,0,0,0,0,0,0,0,0,0,0,0,0,0,0,0,0,0,0,0,0,0,0,0,0,0,0,0,0,0,0,0,0,0,0,0,0,0,0,0,0,0,0,0,0,0,0,0,0,0,0,0,0,0,0,0,0,0,0,0,0,0,0,0,0,0,0,0,0,0,0,0,0,0,0,0,0,0,0,0,0,0,0,0,0,0,0,0,0,0,0,0,0,0,0,0,0,0,0,0,0,0,0,0,0,0,0,0,0,0,0,0,0,0,0,0,0,0,0,0,0,0,0,0,0,0,0,0,0,0,0,0,0,0,0,0,0,0,0,0,0,0,0,0,0,0,0,0,0,0,0,0,0,0,0,0,0,0,0,0,0,0,0,0,0,0,0,0,0,0,0,0,0,0,0,0,0,0,0,0,0,0,0,0,0,0,0,0,0,0,0,0,0,0,0,0,0,0,0,0,0,0,0,0,0,0,0,0,0,0,0,0,0,0,0,0,0,0,0,0,0,0,0,0,0,0,0,0,0,0,0,0,0,0,0,0,0,0,0,0,0,0,0,0,0,0,0,0,0,0,0,0,0,0,0,0,0,0,0,0,0,0,0,0,0,0,0,0,0,0,0,0,0,0,0,0,0,0,0,0,0,0,0,0,0,0,0,0,0,0,0,0,0,0,0,0,0,0,0,0,0,0]","[0.00010000000111176632,0.03250000000116415,0.05380000000150176,0.06630000000222935,0.095500000003085,0.11670000000231084,0.138200000001234,0.1621000000013737,0.18850000000020373,0.20080000000234577,0.23610000000189757,0.2474000000001979,0.27330000000074506,0.2841000000007625,0.3051000000014028,0.3360000000029686,0.34940000000278815,0.38070000000152504,0.3955999999998312,0.4129000000029919,0.43320000000312575,0.45230000000083237,0.47510000000329455,0.5040000000008149,0.5225000000027649,0.5329000000019732,0.5524000000004889,0.5720000000001164,0.5908000000017637,0.6102000000028056,0.6402000000016415,0.6510000000016589,0.6815000000024156,0.6956000000027416,0.7135000000016589,0.7331000000012864,0.753100000001723,0.7753000000011525,0.8040000000000873,0.8145000000004075,0.8329000000012456,0.8522000000011758,0.8797000000013213,0.8966000000000349,0.9118000000016764,0.9301000000014028,0.9488000000019383,0.9724999999998545,0.9836000000032072,1.0113000000019383,1.0310000000026776,1.0538000000015018,1.0645000000004075,1.0830000000023574,1.1148000000030152,1.1291000000019267,1.1455000000023574,1.1693000000013853,1.204200000000128,1.22360000000117,1.2476000000024214,1.271100000001752,1.2822000000014668,1.301900000002206,1.3394000000007509,1.3459000000002561,1.3659000000006927,1.3872000000010303,1.4061000000001513,1.425600000002305,1.4452000000019325,1.4750000000021828,1.5051000000021304,1.523800000002666,1.5469000000011874,1.5614000000023225,1.580100000002858,1.6097000000008848,1.6213000000025204,1.6406000000024505,1.6619000000027881,1.691000000002532,1.7026000000005297,1.722700000002078,1.7498000000014144,1.7624000000032538,1.7884000000012747,1.801100000000588,1.828800000002957,1.8457000000016706,1.8690000000024156,1.8898000000008324,1.9009000000005472,1.9320000000006985,1.9527000000016415,1.9639999999999418,1.9843000000000757,2.0156999999999243,2.0283000000017637,2.048400000003312,2.07930000000124,2.093700000001263,2.1231000000007043,2.144400000001042,2.1652000000030966,2.188900000001013,2.199900000003254,2.2193000000006577,2.2560000000012224,2.2620999999999185,2.2811000000001513,2.3012000000016997,2.3330000000023574,2.343400000001566,2.3699000000015076,2.3883000000023458,2.3995000000031723,2.4302000000025146,2.4438000000009197,2.4593999999997322,2.479800000000978,2.5078000000030443,2.5284000000028755,2.543600000000879,2.5593000000008033,2.579700000002049,2.597700000002078,2.618300000001909,2.649199999999837,2.6601000000009662,2.6777000000001863,2.6951000000008207,2.7137000000002445,2.7322000000021944,2.7506000000030326,2.778100000003178,2.797900000001391,2.8096000000005006,2.827100000002247,2.8458000000027823,2.868000000002212,2.8967000000011467,2.90940000000046,2.9386000000013155,2.950200000002951,2.969600000000355,3.000800000001618,3.012700000002951,3.0428000000028987,3.0596000000005006,3.0758000000023458,3.0923000000002503,3.113199999999779,3.1432000000022526,3.15940000000046,3.183100000002014,3.201500000002852,3.212100000000646,3.2413000000015018,3.2599000000009255,3.27560000000085,3.2920000000012806,3.3110000000015134,3.3311000000030617,3.350700000002689,3.3806000000004133,3.400900000000547,3.4218000000000757,3.4429000000018277,3.459500000000844,3.4747000000024855,3.491600000001199,3.5108000000000175,3.5306000000018685,3.5500000000029104,3.569900000002235,3.588900000002468,3.608700000000681,3.628000000000611,3.6481000000021595,3.6689000000005763,3.687400000002526,3.706900000001042,3.727600000001985,3.747800000001007,3.7652000000016415,3.7877000000007683,3.817300000002433,3.830100000002858,3.861300000000483,3.874600000002829,3.8946000000032654,3.9135999999998603,3.944999999999709,3.965700000000652,3.9957000000031258,4.010700000002544,4.034900000002381,4.047500000000582,4.066700000003038,4.088400000000547,4.109700000000885,4.128100000001723,4.155800000000454,4.181500000002416,4.202100000002247,4.213999999999942,4.244900000001508,4.258200000000215,4.273700000001554,4.2916000000004715,4.309400000001915,4.326600000000326,4.352500000000873,4.362800000002608,4.38130000000092,4.400400000002264,4.41990000000078,4.440400000003137,4.460700000003271,4.490300000001298,4.509300000001531,4.523500000002969,4.540200000003097,4.5614000000023225,4.579100000002654,4.599000000001979,4.6186000000016065,4.638200000001234,4.658900000002177,4.676400000000285,4.695999999999913,4.725700000002689,4.740499999999884,4.756700000001729,4.7753000000011525,4.801300000002811,4.819999999999709,4.832400000002963,4.859599999999773,4.873500000001513,4.892100000000937,4.910800000001473,4.927300000003015,4.9452000000019325,4.9816000000028,4.998800000001211,5.020800000002055,5.031800000000658,5.052300000003015,5.070999999999913,5.092400000001362,5.110599999999977,5.129700000001321,5.14890000000014,5.1691000000028,5.190500000000611,5.207500000000437,5.22780000000057,5.248100000000704,5.268299999999726,5.287500000002183,5.309400000001915,5.327000000001135,5.345500000003085,5.383400000002439,5.3924000000006345,5.4122000000024855,5.433100000002014,5.452400000001944,5.474400000002788,5.494099999999889,5.524199999999837,5.540100000001985,5.556300000000192,5.576000000000931,5.597400000002381,5.6274000000012165,5.6393000000025495,5.660100000000966,5.688500000000204,5.707400000002963,5.722700000002078,5.743300000001909,5.761800000000221,5.781800000000658,5.801600000002509,5.832000000002154,5.843800000002375,5.874700000000303,5.890000000003056,5.906800000000658,5.933899999999994,5.9483000000000175,5.97780000000057,5.990300000001298,6.011000000002241,6.031399999999849,6.060900000000402,6.073200000002544,6.095400000001973,6.124100000000908,6.139699999999721,6.156800000000658,6.186000000001513,6.210399999999936,6.221800000002986,6.239300000001094,6.258800000003248,6.283000000003085,6.31340000000273,6.3365000000012515,6.359000000000378,6.381700000001729,6.411000000000058,6.43210000000181,6.4439000000020314,6.474400000002788,6.489900000000489,6.524199999999837,6.540899999999965,6.5554000000011,6.5724000000009255,6.59320000000298,6.6252000000022235,6.645700000000943,6.656200000001263,6.675800000000891,6.696200000002136,6.7159000000028755,6.7358000000022,6.757300000001123,6.775200000000041,6.795799999999872,6.833000000002357,6.838500000001659,6.859200000002602,6.890900000002148,6.904900000001362,6.921300000001793,6.950600000000122,6.960800000000745,6.982800000001589,7.002200000002631,7.019100000001345,7.041000000001077,7.062900000000809,7.090400000000955,7.1037000000033,7.120000000002619,7.139699999999721,7.159200000001874,7.180800000001909,7.20140000000174,7.220000000001164,7.248400000000402,7.259799999999814,7.2797000000027765,7.300200000001496,7.321300000003248,7.339900000002672,7.3585000000020955,7.390300000002753,7.403900000001158,7.436300000001211,7.455200000000332,7.482300000003306,7.489700000001903,7.50970000000234,7.540899999999965,7.5539000000026135,7.571400000000722,7.590600000003178,7.611300000000483,7.648800000002666,7.655800000000454,7.674000000002707,7.69380000000092,7.720400000001973,7.746100000000297,7.7656000000024505,7.794499999999971,7.803100000000995,7.821700000000419,7.840400000000955,7.859900000003108,7.8902000000016415,7.903100000003178,7.9201000000030035,7.937900000000809,7.967900000003283,7.989100000002509,8.002900000003137,8.021899999999732,8.041300000000774,8.072700000000623,8.092100000001665,8.114100000002509,8.135100000003149,8.152500000000146,8.18080000000191,8.191600000001927,8.212500000001455,8.249800000001414,8.256500000003143,8.275900000000547,8.295600000001286,8.315400000003137,8.334500000000844,8.354300000002695,8.373600000002625,8.392800000001444,8.412500000002183,8.431400000001304,8.450300000000425,8.470600000000559,8.49120000000039,8.510600000001432,8.5412000000033,8.562900000000809,8.573500000002241,8.593400000001566,8.614700000001903,8.632700000001932,8.655000000002474,8.682600000000093,8.704400000002352,8.728500000001077,8.740800000003219,8.76140000000305,8.79870000000301,8.80659999999989,8.82589999999982,8.845400000001973,8.864400000002206,8.883400000002439,8.91450000000259,8.925699999999779,8.968800000002375,8.982300000003306,9.012400000003254,9.031200000001263,9.057700000001205,9.07589999999982,9.09690000000046,9.116500000000087,9.138800000000629,9.159200000001874,9.180299999999988,9.199500000002445,9.220900000000256,9.2387000000017,9.257900000000518,9.278100000003178,9.2970000000023,9.316399999999703,9.337200000001758,9.373700000000099,9.386500000000524,9.401600000001054,9.436800000003132,9.453199999999924,9.468700000001263,9.484200000002602,9.520500000002357,9.538400000001275,9.551100000000588,9.569900000002235,9.588400000000547,9.608700000000681,9.638800000000629,9.651000000001659,9.670799999999872,9.690200000000914,9.721300000001065,9.734900000003108,9.751600000003236,9.788300000000163,9.803100000000995,9.82640000000174,9.836800000000949,9.85450000000128,9.873300000002928,9.89940000000206,9.9191000000028,9.940099999999802,9.951900000000023,9.97190000000046,9.990300000001298,10.007300000001123,10.026499999999942,10.04320000000007,10.063500000000204,10.095600000000559,10.106999999999971,10.13890000000174,10.151200000000244,10.184900000000198,10.201500000002852,10.21770000000106,10.236000000000786,10.264200000001438,10.276000000001659,10.295100000003004,10.314000000002125,10.334000000002561,10.36030000000028,10.384600000001228,10.401600000001054,10.416800000002695,10.436200000000099,10.455799999999726,10.475800000000163,10.506400000002031,10.519000000000233,10.53820000000269,10.55580000000191,10.585300000002462,10.599500000000262,10.620500000000902,10.643299999999726,10.65520000000106,10.680299999999988,10.704400000002352,10.78360000000248,10.818900000002031,10.84150000000227,10.858700000000681,10.890000000003056,10.90650000000096,10.928100000000995,10.950300000000425,10.97410000000309,10.988199999999779,11.018900000002759,11.04240000000209,11.064900000001217,11.084300000002258,11.099200000000565,11.1179000000011,11.138800000000629,11.170900000000984,11.192300000002433,11.212500000001455,11.243200000000797,11.26220000000103,11.282500000001164,11.29910000000018,11.316600000001927,11.347700000002078,11.378300000000309,11.385600000001432,11.407000000002881,11.436600000000908,11.456400000002759,11.478800000000774,11.505300000000716,11.528800000000047,11.547099999999773,11.572100000001228,11.595900000000256,11.617700000002515,11.644000000000233,11.665500000002794,11.691600000001927,11.713999999999942,11.738800000002811,11.761099999999715,11.781399999999849,11.80370000000039,11.826900000000023,11.849400000002788,11.864600000000792,11.895100000001548,11.918499999999767,11.942399999999907,11.961200000001554,11.981400000000576,11.99750000000131,12.026400000002468,12.046500000000378,12.06930000000284,12.095400000001973,12.118900000001304,12.143800000001647,12.1691000000028,12.186499999999796,12.214700000000448,12.232200000002194,12.248100000000704,12.275800000003073,12.296000000002095,12.307400000001508,12.329200000000128,12.350800000000163,12.384900000000926,12.40820000000167,12.41990000000078,12.452500000003056,12.472900000000664,12.48410000000149,12.51810000000114,12.54200000000128,12.56630000000223,12.58730000000287,12.610500000002503,12.634400000002643,12.656000000002678,12.66700000000128,12.70560000000114,12.725200000000768,12.736100000001898,12.758300000001327,12.789600000000064,12.801500000001397,12.83220000000074,12.852600000001985,12.87550000000192,12.898200000003271,12.913800000002084,12.944400000000314,12.97070000000167,12.994900000001508,13.018400000000838,13.041700000001583,13.065800000000309,13.088999999999942,13.101700000002893,13.122200000001612,13.142400000000634,13.175300000002608,13.19510000000082,13.207100000003265,13.227399999999761,13.248300000002928,13.267900000002555,13.2912000000033,13.325700000001234,13.345900000000256,13.369000000002416,13.392400000000634,13.416700000001583,13.440200000000914,13.46140000000014,13.483700000000681,13.495900000001711,13.526700000002165,13.54910000000018,13.57050000000163,13.593100000001868,13.61620000000039,13.641500000001543,13.65400000000227,13.685199999999895,13.696100000001024,13.716400000001158,13.757499999999709,13.776300000001356,13.79950000000099,13.824900000003254,13.849000000001979,13.871399999999994,13.89350000000195,13.90480000000025,13.925300000002608,13.944999999999709,13.96690000000308,13.998200000001816,14.011900000001333,14.04200000000128,14.063600000001315,14.085900000001857,14.108500000002095,14.133100000002742,14.145700000000943,14.168600000000879,14.19840000000113,14.222200000000157,14.233600000003207,14.266900000002352,14.288900000003196,14.300900000002002,14.333400000003166,14.355000000003201,14.378700000001118,14.402900000000955,14.425100000000384,14.448500000002241,14.471700000001874,14.483000000000175,14.517400000000634,14.540500000002794,14.563700000002427,14.587000000003172,14.612600000000384,14.633300000001327,14.656800000000658,14.668000000001484,14.69210000000021,14.730000000003201,14.754800000002433,14.77940000000308,14.804400000000896,14.816500000000815,14.838800000001356,14.863800000002811,14.901499999999942,14.924300000002404,14.946500000001834,14.960900000001857,14.993600000001607,15.016900000002352,15.045000000001892,15.061499999999796,15.082900000001246,15.106900000002497,15.146899999999732,15.170600000001286,15.182600000000093,15.215100000001257,15.256500000003143,15.270000000000437,15.304900000002817,15.315800000000309,15.351900000001478,15.382000000001426,15.398200000003271,15.441399999999703,15.480600000002596,15.509400000002643,15.527000000001863,15.549200000001292,15.593000000000757,15.609800000001997,15.62880000000223,15.671700000002602,15.699800000002142,15.711800000000949,15.737900000000081,15.758600000001024,15.79950000000099,15.820900000002439,15.854800000000978,15.881000000001222,15.89470000000074,15.933899999999994,15.947600000003149,15.97190000000046,15.997800000001007,16.038300000000163,16.05210000000079,16.07550000000265,16.11120000000301,16.13510000000315,16.14760000000024,16.19000000000233,16.201200000003155,16.22240000000238,16.24460000000181,16.261900000001333,16.281700000003184,16.30240000000049,16.323599999999715,16.341700000000856,16.361100000001898,16.38050000000294,16.400100000002567,16.43500000000131,16.453700000001845,16.47690000000148,16.492300000001705,16.52150000000256,16.548400000003312,16.571500000001834,16.594700000001467,16.61710000000312,16.639500000001135,16.663500000002387,16.676500000001397,16.696500000001834,16.71820000000298,16.7387000000017,16.769000000000233,16.78030000000217,16.799000000002707,16.821900000002643,16.854000000002998,16.87550000000192,16.900000000001455,16.925500000001193,16.948599999999715,16.973000000001775,16.99790000000212,17.01980000000185,17.041000000001077,17.059300000000803,17.08570000000327,17.096800000002986,17.116100000002916,17.138600000002043,17.173600000001898,17.192399999999907,17.208300000002055,17.227900000001682,17.256100000002334,17.276800000003277,17.2999000000018,17.315700000002835,17.348400000002584,17.37039999999979,17.381000000001222,17.40350000000035,17.43419999999969,17.445400000000518,17.465000000000146,17.495600000002014,17.515300000002753,17.53780000000188,17.562799999999697,17.584700000003068,17.59690000000046,17.638600000002043,17.660400000000664,17.67450000000099,17.704600000000937,17.72910000000047,17.750800000001618,17.772500000002765,17.786900000002788,17.807300000000396,17.837600000002567,17.849300000001676,17.871900000001915,17.903100000003178,17.92569999999978,17.940099999999802,17.97360000000117,17.984400000001187,18.00470000000132,18.02310000000216,18.052300000003015,18.07220000000234,18.096600000000763,18.11960000000181,18.144200000002456,18.1691000000028,18.192300000002433,18.217000000000553,18.240200000000186,18.26300000000265,18.28490000000238,18.3083000000006,18.33110000000306,18.35620000000199,18.382400000002235,18.408000000003085,18.434900000000198,18.458400000003166,18.481300000003102,18.505800000002637,18.51810000000114,18.539800000002288,18.57850000000326,18.602500000000873,18.625700000000506,18.64900000000125,18.672700000002806,18.697100000001228,18.72200000000157,18.746600000002218,18.77150000000256,18.796100000003207,18.81920000000173,18.843300000000454,18.866500000000087]",18.9428,,18.9428,18.9428,"[0,-0.6]",,18.9428,10.7809,18.9428,"[-0.5,0.7]",8.1619,7.5585,0.6034,10.7809,Rechaza,0,0,0,0,0,1,0,25,Train,Otro,5,3,25,10,,,,,,,,,,,,,,,,,,,,,,,,,,,
,,,,,,,,,,,,,31357119,2021-04-21_13h48.37.030,DictadorBinary,2021.1.4,Linux armv7l,60.06727535,0.805555445,-0.79293412,1,0,0,partition_image,Otro,"[0.8055554448341836,0.8055554448341836,0.8055554448341836,0.8055554448341836,0.8055554448341836,0.8055554448341836,0.8055554448341836,0.8055554448341836,0.8055554448341836,0.8055554448341836,0.8055554448341836,0.8055554448341836,0.8055554448341836,0.8055554448341836,0.8055554448341836,0.8055554448341836,0.8055554448341836,0.8055554448341836,0.8055554448341836,0.8055554448341836,0.8055554448341836,0.8055554448341836,0.8055554448341836,0.8055554448341836,0.8055554448341836,0.8055554448341836,0.8055554448341836,0.8055554448341836,0.8055554448341836,0.8055554448341836,0.8055554448341836,0.8055554448341836,0.8055554448341836,0.8055554448341836,0.8055554448341836,0.8055554448341836,0.8055554448341836,0.8055554448341836,0.0018518564652423468,0.0018518564652423468,0.0018518564652423468,0.0018518564652423468,0.0018518564652423468,0.0018518564652423468,0.0018518564652423468,0.0018518564652423468,0.0018518564652423468,0.0018518564652423468,0.0018518564652423468,0.0018518564652423468,0.0018518564652423468,-0.016666708187181124,-0.0388889234893176,-0.05740742586096939,-0.07407407176737883,-0.1074074258609694,-0.13148143534757653,-0.15925922004544005,-0.19814808125398597,-0.23148143534757654,-0.2666666459064094,-0.30740742586096936,-0.3314814976283482,-0.3666667081871811,-0.38333335409359054,-0.40555556939572707,-0.4166667081871811]","[-0.7929341201241135,-0.7929341201241135,-0.7929341201241135,-0.7929341201241135,-0.7929341201241135,-0.7929341201241135,-0.7929341201241135,-0.7929341201241135,-0.7929341201241135,-0.7929341201241135,-0.7929341201241135,-0.7929341201241135,-0.7929341201241135,-0.7929341201241135,-0.7929341201241135,-0.7929341201241135,-0.7929341201241135,-0.7929341201241135,-0.7929341201241135,-0.7929341201241135,-0.7929341201241135,-0.7929341201241135,-0.7929341201241135,-0.7929341201241135,-0.7929341201241135,-0.7929341201241135,-0.7929341201241135,-0.7929341201241135,-0.7929341201241135,-0.7929341201241135,-0.7929341201241135,-0.7929341201241135,-0.7929341201241135,-0.7929341201241135,-0.7929341201241135,-0.7929341201241135,-0.7929341201241135,-0.7929341201241135,-0.6011557721077128,-0.6011557721077128,-0.6011557721077128,-0.6011557721077128,-0.6011557721077128,-0.6011557721077128,-0.6011557721077128,-0.6011557721077128,-0.6011557721077128,-0.6011557721077128,-0.6011557721077128,-0.6011557721077128,-0.6011557721077128,-0.5741266345301419,-0.5149199357269504,-0.44927762078900707,-0.3836353058510638,-0.27551875554078015,-0.2085894212655142,-0.13136323969414893,-0.028395026457225178,0.05140528036347518,0.13506699149490248,0.2225899337876773,0.2805096132535461,0.39248748129986705,0.4748620865192819,0.5855529352282801,0.6602049049756206]","[1,1,0,0,0,0,0,0,0,0,0,0,0,0,0,0,0,0,0,0,0,0,0,0,0,0,0,0,0,0,0,0,0,0,0,0,0,0,1,1,1,1,1,1,1,1,1,1,1,1,1,1,1,1,1,1,1,1,1,1,1,1,1,1,1,1,1]","[0,0,0,0,0,0,0,0,0,0,0,0,0,0,0,0,0,0,0,0,0,0,0,0,0,0,0,0,0,0,0,0,0,0,0,0,0,0,0,0,0,0,0,0,0,0,0,0,0,0,0,0,0,0,0,0,0,0,0,0,0,0,0,0,0,0,0]","[0,0,0,0,0,0,0,0,0,0,0,0,0,0,0,0,0,0,0,0,0,0,0,0,0,0,0,0,0,0,0,0,0,0,0,0,0,0,0,0,0,0,0,0,0,0,0,0,0,0,0,0,0,0,0,0,0,0,0,0,0,0,0,0,0,0,0]","[0.00010000000111176632,0.006600000000617001,0.03779999999824213,0.060199999999895226,0.07449999999880674,0.09389999999984866,0.11309999999866704,0.13320000000021537,0.15320000000065193,0.17320000000108848,0.19319999999788706,0.22190000000045984,0.23249999999825377,0.2523000000001048,0.2716000000000349,0.2908999999999651,0.3096999999979744,0.33039999999891734,0.3495999999977357,0.38650000000052387,0.3911000000007334,0.4114999999983411,0.4436999999998079,0.45789999999760767,0.48809999999866704,0.5105999999977939,0.5410999999985506,0.5648999999975786,0.5773999999983062,0.6012999999984459,0.6294999999990978,0.6401999999980035,0.6568999999981315,0.6859000000004016,0.7170999999980268,0.7413999999989755,0.780800000000454,0.7897999999986496,0.8189999999995052,0.8745999999991909,0.9742999999980384,1.038700000000972,1.076099999998405,1.1127999999989697,1.1486000000004424,1.1872000000003027,1.2026999999980035,1.2579999999979918,1.287000000000262,1.313399999999092,1.3273999999983062,1.3713999999999942,1.4029000000009546,1.4318999999995867,1.4611000000004424,1.4935000000004948,1.5208999999995285,1.5504999999975553,1.5770999999986088,1.6048999999984517,1.6306000000004133,1.6556999999993423,1.6741000000001804,1.708599999998114,1.736799999998766,1.7612999999983003,1.7880000000004657]",1.8412,,1.8412,1.8412,"[0,-0.6]",,1.8412,0.9277,1.8412,"[-0.5,0.7]",0.9135,0.557,0.3565,0.9277,Rechaza,0,0,1,1,1,1,6,19,Train,Otro,5,3,25,10,,,,,,,,,,,,,,,,,,,,,,,,,,,
,,,,,,,,,,,,,31357119,2021-04-21_13h48.37.030,DictadorBinary,2021.1.4,Linux armv7l,60.06727535,0.805555445,-0.785211312,1,0,0,partition_image,Otro,"[0.8055554448341836,0.8055554448341836,0.8055554448341836,0.8055554448341836,0.8055554448341836,0.8055554448341836,0.8055554448341836,0.8055554448341836,0.8055554448341836,0.8055554448341836,0.8055554448341836,0.8055554448341836,0.8055554448341836,0.8055554448341836,0.8055554448341836,0.8055554448341836,0.8055554448341836,0.8055554448341836,0.8055554448341836,0.8055554448341836,0.8055554448341836,0.8055554448341836,0.8055554448341836,0.8055554448341836,0.8055554448341836,0.8055554448341836,0.8055554448341836,0.8055554448341836,0.8055554448341836,0.8055554448341836,0.8055554448341836,0.8055554448341836,0.8055554448341836,0.8055554448341836,0.8055554448341836,0.8055554448341836,0.8055554448341836,0.8055554448341836,0.8055554448341836,0.8055554448341836,0.8055554448341836,0.8055554448341836,0.8055554448341836,0.04814814353475765,0.04814814353475765,0.04814814353475765,0.04814814353475765,0.04814814353475765,0.04814814353475765,0.04814814353475765,0.04814814353475765,0.04814814353475765,0.04814814353475765,0.04814814353475765,0.04814814353475765,0.04629628706951531,0.04629628706951531,0.04629628706951531,0.04629628706951531,0.042592574139030615,0.03148143534757653,0.03148143534757653,0.04629628706951531,0.06666658362563775,0.08518514827806123,0.11111113879145408,0.13518514827806122,0.1574074258609694,0.18518514827806123,0.22777772241709185,0.2796295788823342,0.31851856465242345,0.3537037129304847,0.37777772241709184,0.41111113879145406,0.4407405931122449,0.46481485172193876,0.48518514827806125]","[-0.7852113115026595,-0.7852113115026595,-0.7852113115026595,-0.7852113115026595,-0.7852113115026595,-0.7852113115026595,-0.7852113115026595,-0.7852113115026595,-0.7852113115026595,-0.7852113115026595,-0.7852113115026595,-0.7852113115026595,-0.7852113115026595,-0.7852113115026595,-0.7852113115026595,-0.7852113115026595,-0.7852113115026595,-0.7852113115026595,-0.7852113115026595,-0.7852113115026595,-0.7852113115026595,-0.7852113115026595,-0.7852113115026595,-0.7852113115026595,-0.7852113115026595,-0.7852113115026595,-0.7852113115026595,-0.7852113115026595,-0.7852113115026595,-0.7852113115026595,-0.7852113115026595,-0.7852113115026595,-0.7852113115026595,-0.7852113115026595,-0.7852113115026595,-0.7852113115026595,-0.7852113115026595,-0.7852113115026595,-0.7852113115026595,-0.7852113115026595,-0.7852113115026595,-0.7852113115026595,-0.7852113115026595,-0.5908589248116135,-0.5908589248116135,-0.5908589248116135,-0.5908589248116135,-0.5908589248116135,-0.5908589248116135,-0.5908589248116135,-0.5908589248116135,-0.5908589248116135,-0.5908589248116135,-0.5908589248116135,-0.5908589248116135,-0.5985815602836879,-0.5985815602836879,-0.6024427914450354,-0.6024427914450354,-0.6011557721077128,-0.5921459441489362,-0.5728394420434397,-0.504623088430851,-0.4235355025487589,-0.35145783120013296,-0.2806671791888298,-0.21245073900155143,-0.14809561655031028,-0.07473075271498227,0.03209877825797872,0.14665094470301418,0.2200157219636525,0.2830838250775709,0.3345679316960328,0.40921985815602835,0.4838718279033688,0.5610980094747341,0.62802734375]","[1,0,0,0,0,0,0,0,0,0,0,0,0,0,0,0,0,0,0,0,0,0,0,0,0,0,0,0,0,0,0,0,0,0,0,0,0,0,0,0,0,0,0,1,1,1,1,1,1,1,1,1,1,1,1,1,1,1,1,1,1,1,1,1,1,1,1,1,1,1,1,1,1,1,1,1,1,1]","[0,0,0,0,0,0,0,0,0,0,0,0,0,0,0,0,0,0,0,0,0,0,0,0,0,0,0,0,0,0,0,0,0,0,0,0,0,0,0,0,0,0,0,0,0,0,0,0,0,0,0,0,0,0,0,0,0,0,0,0,0,0,0,0,0,0,0,0,0,0,0,0,0,0,0,0,0,0]","[0,0,0,0,0,0,0,0,0,0,0,0,0,0,0,0,0,0,0,0,0,0,0,0,0,0,0,0,0,0,0,0,0,0,0,0,0,0,0,0,0,0,0,0,0,0,0,0,0,0,0,0,0,0,0,0,0,0,0,0,0,0,0,0,0,0,0,0,0,0,0,0,0,0,0,0,0,0]","[0.00010000000111176632,0.00999999999839929,0.03229999999894062,0.04439999999885913,0.06520000000091386,0.08620000000155414,0.10689999999885913,0.12819999999919673,0.1484999999993306,0.17160000000149012,0.19039999999949941,0.20999999999912689,0.23040000000037253,0.2511000000013155,0.2713000000003376,0.29139999999824795,0.3117999999994936,0.33179999999993015,0.3536999999996624,0.3742999999994936,0.3948999999993248,0.4154000000016822,0.43479999999908614,0.4544999999998254,0.47529999999824213,0.4952999999986787,0.5155999999988126,0.5364999999983411,0.5557999999982712,0.577000000001135,0.5963000000010652,0.6165000000000873,0.6467999999986205,0.658899999998539,0.6775999999990745,0.695400000000518,0.7135999999991327,0.7334999999984575,0.7527000000009139,0.7711999999992258,0.7887000000009721,0.8078999999997905,0.8297999999995227,0.8584999999984575,0.8879999999990105,0.9605999999985215,0.9949999999989814,1.0069000000003143,1.0289000000011583,1.052800000001298,1.0806000000011409,1.103899999998248,1.1202999999986787,1.1454999999987194,1.1755000000011933,1.1882000000005064,1.2177000000010594,1.235899999999674,1.2639000000017404,1.2783000000017637,1.312900000000809,1.3342000000011467,1.3590000000003783,1.3843999999990046,1.4086999999999534,1.433499999999185,1.4579999999987194,1.4844000000011874,1.5109000000011292,1.5326999999997497,1.5565999999998894,1.5846999999994296,1.6101000000016938,1.633399999998801,1.6581000000005588,1.6828999999997905,1.706900000001042,1.7312999999994645]",1.7836,,1.7836,1.7836,"[0,-0.6]",,1.7836,,,,0.8434,0.4964,0.347,0.9402,Acepta,0,0,2,2,2,1,13,12,Train,Otro,5,3,25,10,0.9402,1.7836,"[0.5,0.7]",,,,,,,,,,,,,,,,,,,,,,,,
,,,,,,,,,,,,,31357119,2021-04-21_13h48.37.030,DictadorBinary,2021.1.4,Linux armv7l,60.06727535,0.812962871,-0.807092199,1,0,0,partition_image,Otro,"[0.812962870695153,0.812962870695153,0.812962870695153,0.812962870695153,0.812962870695153,0.812962870695153,0.812962870695153,0.812962870695153,0.812962870695153,0.812962870695153,0.812962870695153,0.812962870695153,0.812962870695153,0.812962870695153,0.812962870695153,0.812962870695153,0.812962870695153,0.812962870695153,0.812962870695153,0.812962870695153,0.812962870695153,0.812962870695153,0.812962870695153,0.812962870695153,0.812962870695153,0.812962870695153,0.812962870695153,0.812962870695153,0.812962870695153,0.011111076510682398,0.011111076510682398,0.011111076510682398,0.011111076510682398,0.011111076510682398,0.011111076510682398,0.011111076510682398,0.011111076510682398,0.011111076510682398,0.011111076510682398,0.011111076510682398,0.011111076510682398,0.02037029655612245,0.025925928232621173,0.029629641163105867,0.033333291812818876,0.07592599051339285,0.1462962870695153,0.2,0.29444443060427294,0.3537037129304847,0.45740730129942603,0.5018518564652423,0.5851851482780612]","[-0.8070921985815603,-0.8070921985815603,-0.8070921985815603,-0.8070921985815603,-0.8070921985815603,-0.8070921985815603,-0.8070921985815603,-0.8070921985815603,-0.8070921985815603,-0.8070921985815603,-0.8070921985815603,-0.8070921985815603,-0.8070921985815603,-0.8070921985815603,-0.8070921985815603,-0.8070921985815603,-0.8070921985815603,-0.8070921985815603,-0.8070921985815603,-0.8070921985815603,-0.8070921985815603,-0.8070921985815603,-0.8070921985815603,-0.8070921985815603,-0.8070921985815603,-0.8070921985815603,-0.8070921985815603,-0.8070921985815603,-0.8070921985815603,-0.5921459441489362,-0.5921459441489362,-0.5921459441489362,-0.5921459441489362,-0.5921459441489362,-0.5921459441489362,-0.5921459441489362,-0.5921459441489362,-0.5921459441489362,-0.5921459441489362,-0.5921459441489362,-0.5921459441489362,-0.5882847129875887,-0.5857105011635638,-0.5741266345301419,-0.5638297872340425,-0.4119516359153369,-0.1609667622451241,-0.02582090120789007,0.16467034089649824,0.2702127659574468,0.43110057208554964,0.5031783732962101,0.6112949668938387]","[1,0,0,0,0,0,0,0,0,0,0,0,0,0,0,0,0,0,0,0,0,0,0,0,0,0,0,0,0,1,1,1,1,1,1,1,1,1,1,1,1,1,1,1,1,1,1,1,1,1,1,1,1]","[0,0,0,0,0,0,0,0,0,0,0,0,0,0,0,0,0,0,0,0,0,0,0,0,0,0,0,0,0,0,0,0,0,0,0,0,0,0,0,0,0,0,0,0,0,0,0,0,0,0,0,0,0]","[0,0,0,0,0,0,0,0,0,0,0,0,0,0,0,0,0,0,0,0,0,0,0,0,0,0,0,0,0,0,0,0,0,0,0,0,0,0,0,0,0,0,0,0,0,0,0,0,0,0,0,0,0]","[0.00009999999747378752,0.03769999999713036,0.04379999999946449,0.057199999999284046,0.08089999999720021,0.10539999999673455,0.1246999999966647,0.14479999999821302,0.16529999999693246,0.1860999999989872,0.20689999999740394,0.238999999997759,0.2510999999976775,0.2720999999983178,0.28949999999895226,0.308099999998376,0.3271999999997206,0.3462999999974272,0.36779999999998836,0.3882999999987078,0.4081999999980326,0.4411000000000058,0.45349999999962165,0.47339999999894644,0.49429999999847496,0.5156999999999243,0.5468000000000757,0.559399999998277,0.5824999999967986,0.6250999999974738,0.6427999999978056,0.716999999996915,0.7586999999984982,0.7832999999991443,0.8059999999968568,0.8205999999991036,0.8449000000000524,0.8767999999981839,0.8964999999989232,0.9182999999975436,0.933999999997468,0.957299999998213,0.9882999999972526,1.009699999998702,1.0337999999974272,1.0533999999970547,1.0821999999971013,1.1052999999992608,1.1308999999964726,1.1564999999973224,1.1797999999980675,1.2040999999990163,1.2302999999992608]",1.2984,,1.2984,1.2984,"[0,-0.6]",,1.2984,,,,0.5874,0.4105,0.1769,0.711,Acepta,0,0,3,3,3,1,19,6,Train,Otro,5,3,25,10,0.711,1.2984,"[0.5,0.7]",,,,,,,,,,,,,,,,,,,,,,,,
,,,,,,,,,,,,,31357119,2021-04-21_13h48.37.030,DictadorBinary,2021.1.4,Linux armv7l,60.06727535,0.755555445,-0.683530377,1,0,0,partition_image,Otro,"[0.7555554448341837,0.7555554448341837,0.7555554448341837,0.7555554448341837,0.7555554448341837,0.7555554448341837,0.7555554448341837,0.7555554448341837,0.7555554448341837,0.7555554448341837,0.7555554448341837,0.7555554448341837,0.7555554448341837,0.7555554448341837,0.7555554448341837,0.7555554448341837,0.7555554448341837,0.7555554448341837,0.7555554448341837,0.7555554448341837,0.7555554448341837,0.7555554448341837,0.7555554448341837,-0.0388889234893176,-0.0388889234893176,-0.02962970344387755,-0.016666708187181124,-0.016666708187181124,-0.014814851721938775,-0.012962995256696428,-0.011111138791454082,-0.009259282326211735,-0.007407425860969387,-0.005555569395727041,-0.0018518564652423468,-6.228077168367348e-8,0.007407363580197704,0.024074009486607144,0.042592574139030615,0.06111113879145408,0.08148143534757653,0.12037029655612246,0.16666658362563774,0.19444443060427297,0.22962957888233418,0.25555556939572704,0.2814814353475765,0.3092591577646684,0.33518514827806123,0.3796295788823342,0.4240740094866071,0.4796295788823342]","[-0.6835303773271276,-0.6835303773271276,-0.6835303773271276,-0.6835303773271276,-0.6835303773271276,-0.6835303773271276,-0.6835303773271276,-0.6835303773271276,-0.6835303773271276,-0.6835303773271276,-0.6835303773271276,-0.6835303773271276,-0.6835303773271276,-0.6835303773271276,-0.6835303773271276,-0.6835303773271276,-0.6835303773271276,-0.6835303773271276,-0.6835303773271276,-0.6835303773271276,-0.6835303773271276,-0.6835303773271276,-0.6835303773271276,-0.5702652302194149,-0.5702652302194149,-0.5689782108820922,-0.5664039990580674,-0.5664039990580674,-0.5651169797207447,-0.5638297872340425,-0.5625425947473405,-0.5612555754100177,-0.559968556072695,-0.558681363585993,-0.5573941710992908,-0.5509587281139184,-0.5342264378324468,-0.4853165863253546,-0.4286839261968085,-0.3205672893118351,-0.25621216686059395,-0.15453114611037233,-0.03225634419326241,0.04239562555407801,0.14665094470301418,0.2444707342918883,0.32684529622395836,0.4040714345079787,0.4555555411264406,0.527633342337101,0.5919884647883422,0.6537693754155585]","[1,1,0,0,0,0,0,0,0,0,0,0,0,0,0,0,0,0,0,0,0,0,0,1,1,1,1,1,1,1,1,1,1,1,1,1,1,1,1,1,1,1,1,1,1,1,1,1,1,1,1,1]","[0,0,0,0,0,0,0,0,0,0,0,0,0,0,0,0,0,0,0,0,0,0,0,0,0,0,0,0,0,0,0,0,0,0,0,0,0,0,0,0,0,0,0,0,0,0,0,0,0,0,0,0]","[0,0,0,0,0,0,0,0,0,0,0,0,0,0,0,0,0,0,0,0,0,0,0,0,0,0,0,0,0,0,0,0,0,0,0,0,0,0,0,0,0,0,0,0,0,0,0,0,0,0,0,0]","[0,0.0059000000001105946,0.021300000000337604,0.041199999999662396,0.0636000000013155,0.08410000000003492,0.11600000000180444,0.12710000000151922,0.1550999999999476,0.17650000000139698,0.19139999999970314,0.2114000000001397,0.24179999999978463,0.25790000000051805,0.2739000000001397,0.29140000000188593,0.3768999999992957,0.3834999999999127,0.39640000000144937,0.4232000000010885,0.4481999999989057,0.4749999999985448,0.49420000000100117,0.5252000000000407,0.55370000000039,0.613099999998667,0.6628000000018801,0.6755000000011933,0.6998999999996158,0.7400999999990745,0.7619999999988067,0.7848000000012689,0.8041999999986729,0.8247000000010303,0.8461999999999534,0.8726999999998952,0.8955999999998312,0.9197999999996682,0.9434000000001106,0.9661999999989348,0.9811000000008789,1.0028000000020256,1.0368999999991502,1.0591999999996915,1.0817999999999302,1.1032999999988533,1.1274000000012165,1.1533000000017637,1.1752999999989697,1.2000000000007276,1.2224999999998545,1.244699999999284]",1.2877,,1.2877,1.2877,"[0,-0.6]",,1.2877,,,,0.691,0.3662,0.3248,0.5967,Acepta,0,0,4,4,4,1,25,0,Train,Otro,5,3,25,10,0.5967,1.2877,"[0.5,0.7]",,,,,,,,,,,,,,,,,,,,,,,,
,,,,,,,,,,,,,31357119,2021-04-21_13h48.37.030,DictadorBinary,2021.1.4,Linux armv7l,60.06727535,0.764814852,-0.777488849,1,0,0,partition_image,Ex Combatiente,"[0.7648148517219387,0.7648148517219387,0.7648148517219387,0.7648148517219387,0.7648148517219387,0.7648148517219387,0.7648148517219387,0.7648148517219387,0.7648148517219387,0.7648148517219387,0.7648148517219387,0.7648148517219387,0.7648148517219387,0.7648148517219387,0.7648148517219387,0.7648148517219387,0.7648148517219387,0.7648148517219387,0.7648148517219387,0.7648148517219387,0.7648148517219387,0.7648148517219387,0.7648148517219387,0.7648148517219387,0.7648148517219387,0.7648148517219387,0.7648148517219387,0.7648148517219387,0.7648148517219387,0.7648148517219387,0.03148143534757653,0.03148143534757653,0.03148143534757653,0.03148143534757653,0.03148143534757653,0.03148143534757653,0.03148143534757653,0.03148143534757653,0.03148143534757653,0.03148143534757653,0.03148143534757653,0.03148143534757653,0.03148143534757653,0.03148143534757653,0.03148143534757653,0.03148143534757653,0.03148143534757653,0.03148143534757653,0.03148143534757653,0.033333291812818876,0.035185148278061226,0.035185148278061226,0.035185148278061226,0.029629641163105867,0.024074009486607144,0.018518502371651785,0.009259282326211735,-6.228077168367348e-8,-0.005555569395727041,-0.01851856465242347,-0.02962970344387755,-0.02962970344387755,-0.024074071767378826,-6.228077168367348e-8,0.042592574139030615,0.08333329181281887,0.17222227758290817,0.22592599051339285,0.31851856465242345,0.394444430604273,0.4537038374920281]","[-0.7774888491799645,-0.7774888491799645,-0.7774888491799645,-0.7774888491799645,-0.7774888491799645,-0.7774888491799645,-0.7774888491799645,-0.7774888491799645,-0.7774888491799645,-0.7774888491799645,-0.7774888491799645,-0.7774888491799645,-0.7774888491799645,-0.7774888491799645,-0.7774888491799645,-0.7774888491799645,-0.7774888491799645,-0.7774888491799645,-0.7774888491799645,-0.7774888491799645,-0.7774888491799645,-0.7774888491799645,-0.7774888491799645,-0.7774888491799645,-0.7774888491799645,-0.7774888491799645,-0.7774888491799645,-0.7774888491799645,-0.7774888491799645,-0.7774888491799645,-0.6500656236148049,-0.6500656236148049,-0.6500656236148049,-0.6500656236148049,-0.6500656236148049,-0.6500656236148049,-0.6500656236148049,-0.6500656236148049,-0.6500656236148049,-0.6500656236148049,-0.6500656236148049,-0.6500656236148049,-0.6500656236148049,-0.6500656236148049,-0.6500656236148049,-0.6500656236148049,-0.6500656236148049,-0.6500656236148049,-0.6500656236148049,-0.6359075451573581,-0.6243236785239362,-0.6063041957557624,-0.5947203291223404,-0.5844234818262412,-0.5754136538674646,-0.5625425947473405,-0.5213553787123227,-0.47115833471852836,-0.4235355025487589,-0.3553190623614805,-0.2536381281859486,-0.17898607186391843,-0.0888889177471188,0.014079295489804964,0.12348303828679077,0.19556079621010639,0.322984021775266,0.3860520383144947,0.487733145639406,0.5752560879321809,0.6408983595827793]","[1,0,0,0,0,0,0,0,0,0,0,0,0,0,0,0,0,0,0,0,0,0,0,0,0,0,0,0,0,0,1,1,1,1,1,1,1,1,1,1,1,1,1,1,1,1,1,1,1,1,1,1,1,1,1,1,1,1,1,1,1,1,1,1,1,1,1,1,1,1,1]","[0,0,0,0,0,0,0,0,0,0,0,0,0,0,0,0,0,0,0,0,0,0,0,0,0,0,0,0,0,0,0,0,0,0,0,0,0,0,0,0,0,0,0,0,0,0,0,0,0,0,0,0,0,0,0,0,0,0,0,0,0,0,0,0,0,0,0,0,0,0,0]","[0,0,0,0,0,0,0,0,0,0,0,0,0,0,0,0,0,0,0,0,0,0,0,0,0,0,0,0,0,0,0,0,0,0,0,0,0,0,0,0,0,0,0,0,0,0,0,0,0,0,0,0,0,0,0,0,0,0,0,0,0,0,0,0,0,0,0,0,0,0,0]","[0.00010000000111176632,0.006900000000314321,0.029200000000855653,0.040899999999965075,0.06420000000071013,0.09930000000167638,0.1224000000001979,0.13800000000264845,0.15490000000136206,0.17580000000089058,0.1967000000004191,0.2194000000017695,0.25310000000172295,0.26410000000032596,0.28540000000066357,0.30340000000069267,0.3228000000017346,0.3440000000009604,0.3629000000000815,0.3811000000023341,0.40060000000084983,0.417700000001787,0.4372000000003027,0.4544999999998254,0.47119999999995343,0.4922000000005937,0.519800000001851,0.5313000000023749,0.5501000000003842,0.57129999999961,0.6007000000026892,0.6301999999996042,0.6896000000015192,0.7250000000021828,0.744700000002922,0.7572000000000116,0.7911000000021886,0.8055000000022119,0.8276000000005297,0.8614000000015949,0.8814000000020314,0.90230000000156,0.9259999999994761,0.949400000001333,0.9735000000000582,0.9966000000022177,1.0192999999999302,1.0382000000026892,1.0540000000000873,1.085399999999936,1.1090000000003783,1.131600000000617,1.1529000000009546,1.1772000000019034,1.2002000000029511,1.2242000000005646,1.249100000000908,1.2695000000021537,1.293100000002596,1.3159000000014203,1.3413000000000466,1.3661000000029162,1.3885000000009313,1.41280000000188,1.4389000000010128,1.4592000000011467,1.4825000000018917,1.5047000000013213,1.529900000001362,1.5516000000025088,1.5742000000027474]",1.622,,1.622,1.622,"[0,-0.6]",,1.622,,,,0.944,0.6394,0.3046,0.678,Acepta,0,,,,,,0,25,Actual,,5,3,25,10,0.678,1.622,"[0.5,0.7]",0.805555445,-0.786498504,1,0,0,fin_entrenamiento_image,0.814814852,-0.832834317,1,0,0,next_button2,0,0,0,0,1,,,,,,,
,,,,,,,,,,,,,31357119,2021-04-21_13h48.37.030,DictadorBinary,2021.1.4,Linux armv7l,60.06727535,,,,,,,,,,,,,,,,,,,,,,,,,,,,,,,,,,,,,,Ex Combatiente,,,,,,,,,,,,,,,,,,,,,,,,,0,0,0,2,1,"Va a jugar con un EX COMBATIENTE.

Oprima la flecha para continuar.",¿Cuanto le da al ex combatiente?
,,,,,,,,,,,,,31357119,2021-04-21_13h48.37.030,DictadorBinary,2021.1.4,Linux armv7l,60.06727535,0.801851856,-0.805805006,1,0,0,partition_image,Ciudadano,"[0.8018518564652424,0.8018518564652424,0.8018518564652424,0.8018518564652424,0.8018518564652424,0.8018518564652424,0.8018518564652424,0.8018518564652424,0.8018518564652424,0.8018518564652424,0.8018518564652424,0.8018518564652424,0.8018518564652424,0.8018518564652424,0.8018518564652424,0.8018518564652424,0.8018518564652424,0.8018518564652424,0.8018518564652424,0.8018518564652424,0.8018518564652424,0.8018518564652424,0.8018518564652424,0.8018518564652424,0.8018518564652424,0.8018518564652424,0.8018518564652424,0.8018518564652424,0.08518514827806123,0.08518514827806123,0.08518514827806123,0.08518514827806123,0.04629628706951531,0.012962995256696428,-0.012962995256696428,-0.03333341637436225,-0.06296299525669642,-0.09444443060427296,-0.10555556939572704,-0.15,-0.16296299525669644,-0.23148143534757654,-0.29814814353475766,-0.37407407176737884,-0.4240740717673788,-0.4740740717673788,-0.555555569395727]","[-0.8058050060948582,-0.8058050060948582,-0.8058050060948582,-0.8058050060948582,-0.8058050060948582,-0.8058050060948582,-0.8058050060948582,-0.8058050060948582,-0.8058050060948582,-0.8058050060948582,-0.8058050060948582,-0.8058050060948582,-0.8058050060948582,-0.8058050060948582,-0.8058050060948582,-0.8058050060948582,-0.8058050060948582,-0.8058050060948582,-0.8058050060948582,-0.8058050060948582,-0.8058050060948582,-0.8058050060948582,-0.8058050060948582,-0.8058050060948582,-0.8058050060948582,-0.8058050060948582,-0.8058050060948582,-0.8058050060948582,-0.5857105011635638,-0.5857105011635638,-0.5857105011635638,-0.5857105011635638,-0.5509587281139184,-0.4969004529587766,-0.4389807734929078,-0.38234828651374114,-0.22789592337101064,-0.11720507466201241,-0.08374049409906915,0.010218064328457448,0.043682731466090426,0.18655114140070922,0.27536118960549644,0.371893916569703,0.4465458430296986,0.530207510873781,0.6769372169007646]","[1,0,0,0,0,0,0,0,0,0,0,0,0,0,0,0,0,0,0,0,0,0,0,0,0,0,0,0,1,1,1,1,1,1,1,1,1,1,1,1,1,1,1,1,1,1,1]","[0,0,0,0,0,0,0,0,0,0,0,0,0,0,0,0,0,0,0,0,0,0,0,0,0,0,0,0,0,0,0,0,0,0,0,0,0,0,0,0,0,0,0,0,0,0,0]","[0,0,0,0,0,0,0,0,0,0,0,0,0,0,0,0,0,0,0,0,0,0,0,0,0,0,0,0,0,0,0,0,0,0,0,0,0,0,0,0,0,0,0,0,0,0,0]","[0.00009999999747378752,0.010199999996984843,0.03809999999793945,0.05559999999968568,0.08099999999831198,0.10459999999875436,0.1275999999998021,0.15619999999762513,0.1716999999989639,0.1878999999971711,0.20759999999791034,0.22819999999774154,0.24759999999878346,0.26679999999760184,0.2889999999970314,0.3069999999970605,0.3260999999984051,0.34659999999712454,0.37960000000020955,0.39979999999923166,0.41089999999894644,0.43149999999877764,0.45099999999729334,0.48070000000006985,0.49179999999978463,0.5103999999992084,0.5304999999971187,0.550199999997858,0.5730000000003201,0.5974999999998545,0.6613999999972293,0.6939999999995052,0.7305999999989581,0.7517999999981839,0.7744999999995343,0.7965999999978521,0.8176999999996042,0.8436999999976251,0.8658999999970547,0.8905999999988126,0.906699999999546,0.938399999999092,0.9592999999986205,0.9828999999990629,1.0054999999993015,1.0213000000003376,1.0516999999999825]",1.1036,,1.1036,1.1036,"[0,-0.6]",,1.1036,0.6494,1.1036,"[-0.5,0.7]",0.4542,0.1769,0.2773,0.6494,Rechaza,0,,,,,,0,25,Actual,,5,3,25,10,,,,,,,,,,0.842592574,-0.751746731,1,0,0,next_button2,0,0,0,0,1,,,,,,,
,,,,,,,,,,,,,31357119,2021-04-21_13h48.37.030,DictadorBinary,2021.1.4,Linux armv7l,60.06727535,0.827777722,-0.780063061,1,0,0,partition_image,Ciudadano,"[0.8277777224170918,0.8277777224170918,0.8277777224170918,0.8277777224170918,0.8277777224170918,0.8277777224170918,0.8277777224170918,0.8277777224170918,0.8277777224170918,0.8277777224170918,0.8277777224170918,0.8277777224170918,0.8277777224170918,0.8277777224170918,0.8277777224170918,0.8277777224170918,0.8277777224170918,0.8277777224170918,0.8277777224170918,0.8277777224170918,0.8277777224170918,0.8277777224170918,0.8277777224170918,0.8277777224170918,0.8277777224170918,0.8277777224170918,0.035185148278061226,-0.020370358836894132,-0.18333329181281888,-0.2648147271603954,-0.34444443060427293,-0.4203703588368941,-0.4462962870695153,-0.4722222153021365,-0.4722222153021365,-0.4685185646524235,-0.4685185646524235,-0.47777778469786353,-0.5018518564652423]","[-0.7800630610039894,-0.7800630610039894,-0.7800630610039894,-0.7800630610039894,-0.7800630610039894,-0.7800630610039894,-0.7800630610039894,-0.7800630610039894,-0.7800630610039894,-0.7800630610039894,-0.7800630610039894,-0.7800630610039894,-0.7800630610039894,-0.7800630610039894,-0.7800630610039894,-0.7800630610039894,-0.7800630610039894,-0.7800630610039894,-0.7800630610039894,-0.7800630610039894,-0.7800630610039894,-0.7800630610039894,-0.7800630610039894,-0.7800630610039894,-0.7800630610039894,-0.7800630610039894,-0.5972943677969859,-0.543236092641844,-0.34630940755208334,-0.2356185588430851,-0.10690831394060284,0.041108519642065605,0.13120567375886524,0.2315996751717642,0.30496458229443707,0.3937746304992243,0.4529813725897606,0.5495140562666223,0.6357499359347296]","[1,0,0,0,0,0,0,0,0,0,0,0,0,0,0,0,0,0,0,0,0,0,0,0,0,0,1,1,1,1,1,1,1,1,1,1,1,1,1]","[0,0,0,0,0,0,0,0,0,0,0,0,0,0,0,0,0,0,0,0,0,0,0,0,0,0,0,0,0,0,0,0,0,0,0,0,0,0,0]","[0,0,0,0,0,0,0,0,0,0,0,0,0,0,0,0,0,0,0,0,0,0,0,0,0,0,0,0,0,0,0,0,0,0,0,0,0,0,0]","[0.00010000000111176632,0.03389999999853899,0.039100000001781154,0.05040000000008149,0.06950000000142609,0.0882000000019616,0.10599999999976717,0.12410000000090804,0.14180000000123982,0.1621999999988475,0.18130000000019209,0.20060000000012224,0.22070000000167056,0.23919999999998254,0.25869999999849824,0.2772000000004482,0.2963999999992666,0.3267999999989115,0.35169999999925494,0.36750000000029104,0.38369999999849824,0.4025000000001455,0.4232000000010885,0.4537000000018452,0.466100000001461,0.48849999999947613,0.5270000000018626,0.547999999998865,0.6094999999986612,0.632900000000518,0.6572999999989406,0.688399999999092,0.7099999999991269,0.7361999999993714,0.7563000000009197,0.7789000000011583,0.8035999999992782,0.8286000000007334,0.8538000000007742]",0.9123,,0.9123,0.9123,"[0,-0.6]",,0.9123,0.6066,0.9123,"[-0.5,0.7]",0.3057,0.0614,0.2443,0.6066,Rechaza,0,,,,,,3,22,Actual,,5,3,25,10,,,,,,,,,,,,,,,,0,1,1,1,1,,,,,,,
,,,,,,,,,,,,,31357119,2021-04-21_13h48.37.030,DictadorBinary,2021.1.4,Linux armv7l,60.06727535,0.785185148,-0.750459538,1,0,0,partition_image,Ciudadano,"[0.7851851482780612,0.7851851482780612,0.7851851482780612,0.7851851482780612,0.7851851482780612,0.7851851482780612,0.7851851482780612,0.7851851482780612,0.7851851482780612,0.7851851482780612,0.7851851482780612,0.7851851482780612,0.7851851482780612,0.7851851482780612,0.7851851482780612,0.7851851482780612,0.7851851482780612,0.7851851482780612,0.7851851482780612,0.7851851482780612,0.7851851482780612,0.7851851482780612,0.7851851482780612,0.7851851482780612,0.7851851482780612,0.04629628706951531,0.033333291812818876,0.025925928232621173,0.03703700474330357,0.06666658362563775,0.09814814353475765,0.14259257413903062,0.18333329181281888,0.23518514827806122,0.28518514827806124,0.3574074258609694,0.42962957888233416,0.4925925741390306,0.5370371293048469,0.5685185646524235]","[-0.7504595384530142,-0.7504595384530142,-0.7504595384530142,-0.7504595384530142,-0.7504595384530142,-0.7504595384530142,-0.7504595384530142,-0.7504595384530142,-0.7504595384530142,-0.7504595384530142,-0.7504595384530142,-0.7504595384530142,-0.7504595384530142,-0.7504595384530142,-0.7504595384530142,-0.7504595384530142,-0.7504595384530142,-0.7504595384530142,-0.7504595384530142,-0.7504595384530142,-0.7504595384530142,-0.7504595384530142,-0.7504595384530142,-0.7504595384530142,-0.7504595384530142,-0.5561071517619681,-0.5561071517619681,-0.5522457474512411,-0.48145518201462767,-0.3218544817985372,-0.21759916264960105,-0.10433410211657801,-0.01423694799977837,0.09902811253324469,0.1839769295766844,0.29466773499833776,0.40149726597129876,0.49931709884751774,0.5842658293162677,0.6524822911472186]","[1,1,0,0,0,0,0,0,0,0,0,0,0,0,0,0,0,0,0,0,0,0,0,0,0,1,1,1,1,1,1,1,1,1,1,1,1,1,1,1]","[0,0,0,0,0,0,0,0,0,0,0,0,0,0,0,0,0,0,0,0,0,0,0,0,0,0,0,0,0,0,0,0,0,0,0,0,0,0,0,0]","[0,0,0,0,0,0,0,0,0,0,0,0,0,0,0,0,0,0,0,0,0,0,0,0,0,0,0,0,0,0,0,0,0,0,0,0,0,0,0,0]","[0,0.008200000000272212,0.0385999999998603,0.06139999999868451,0.07289999999920838,0.09339999999792781,0.11290000000008149,0.14990000000028658,0.15509999999989077,0.17439999999982092,0.19519999999823767,0.2142999999996391,0.2504999999983397,0.2554999999993015,0.27499999999787406,0.2952000000004773,0.31489999999757856,0.3351000000002955,0.35609999999724096,0.38399999999819556,0.40259999999756246,0.41939999999885913,0.4346000000005006,0.4519000000000233,0.4775999999983469,0.5064999999994484,0.5251999999999839,0.6002000000007683,0.6336999999984982,0.6552999999985332,0.6801999999988197,0.7049000000006913,0.7295999999987544,0.75,0.7716999999975087,0.7968000000001325,0.8205999999991036,0.8428999999995881,0.8682999999982144,0.8931999999986147]",0.9467,,0.9467,0.9467,"[0,-0.6]",,0.9467,,,,0.3678,0.1084,0.2594,0.5789,Acepta,0,,,,,,5,20,Actual,,5,3,25,10,0.5789,0.9467,"[0.5,0.7]",,,,,,,,,,,,,0,2,2,2,1,,,,,,,
,,,,,,,,,,,,,31357119,2021-04-21_13h48.37.030,DictadorBinary,2021.1.4,Linux armv7l,60.06727535,,,,,,,,,,,,,,,,,,,,,,,,,,,,,,,,,,,,,,Ciudadano,,,,,,,,,,,,,,,,,,,,,,,,,0,1,1,0,1,"Va a jugar con un CIUDADANO COLOMBIANO.

Oprima la flecha para continuar.",¿Cuanto le da al ciudadano?
