Mouse_Instructions.x,Mouse_Instructions.y,Mouse_Instructions.leftButton,Mouse_Instructions.midButton,Mouse_Instructions.rightButton,Mouse_Instructions.clicked_name,instruccioness.thisRepN,instruccioness.thisTrialN,instruccioness.thisN,instruccioness.thisIndex,instruccioness.ran,Instrucciones,Texto,Cedula,date,expName,psychopyVersion,OS,frameRate,partition_mouse.x,partition_mouse.y,partition_mouse.leftButton,partition_mouse.midButton,partition_mouse.rightButton,partition_mouse.clicked_name,rolotro,tracking_2.x,tracking_2.y,tracking_2.leftButton,tracking_2.midButton,tracking_2.rightButton,tracking_2.time,tracking_2.stopped,tracking_2.startedR,tracking_2.stoppedR,start_region_2.stopped,start_region_2.pos,Question_2.started,Question_2.stopped,O1.startedR,O1.stoppedR,O1_choiceR.pos,Total_Time,Resp_Time,Mov_Time,Time_to_start,Choice,liftedFinger,Trainingg.thisRepN,Trainingg.thisTrialN,Trainingg.thisN,Trainingg.thisIndex,Trainingg.ran,Ud,Otro,Type,Rol_otro,Otro_transf,Multiplicador,Ud_manos,fichas_base,O0.startedR,O0.stoppedR,O0_choiceR.pos,fin_entrenamiento_mouse.x,fin_entrenamiento_mouse.y,fin_entrenamiento_mouse.leftButton,fin_entrenamiento_mouse.midButton,fin_entrenamiento_mouse.rightButton,fin_entrenamiento_mouse.clicked_name,mouse2.x,mouse2.y,mouse2.leftButton,mouse2.midButton,mouse2.rightButton,mouse2.clicked_name,trials.thisRepN,trials.thisTrialN,trials.thisN,trials.thisIndex,trials.ran,trials_2.thisRepN,trials_2.thisTrialN,trials_2.thisN,trials_2.thisIndex,trials_2.ran,TextoR,Pregunta
0.825926039,-0.784838418,1,0,0,next_button,0,0,0,0,1,1,"Imagine que usted y otra persona reciben cada uno 10 fichas. Cada una vale $3.000 pesos. 

Oprima la flecha para continuar.",26686044,2021-04-21_12h54.07.430,DictadorBinary,2021.1.4,Linux armv7l,60.07449237,,,,,,,,,,,,,,,,,,,,,,,,,,,,,,,,,,,,,,,,,,,,,,,,,,,,,,,,,,,,,,,,,,,,,
0.796296353,-0.764771528,1,0,0,next_button,0,1,1,1,1,2,"La otra persona le puede transferir a usted de 0 a 10 fichas. Esas fichas se triplican una vez se transfieren a usted.

Oprima la flecha para continuar",26686044,2021-04-21_12h54.07.430,DictadorBinary,2021.1.4,Linux armv7l,60.07449237,,,,,,,,,,,,,,,,,,,,,,,,,,,,,,,,,,,,,,,,,,,,,,,,,,,,,,,,,,,,,,,,,,,,,
0.825926039,-0.777034696,1,0,0,next_button,0,2,2,2,1,3,"Por ejemplo, si la otra persona le transfiere 2 fichas, se convierten en 6 fichas (2x3). Así, usted tendría en sus manos 16 fichas en total.

Oprima la flecha para continuar",26686044,2021-04-21_12h54.07.430,DictadorBinary,2021.1.4,Linux armv7l,60.07449237,,,,,,,,,,,,,,,,,,,,,,,,,,,,,,,,,,,,,,,,,,,,,,,,,,,,,,,,,,,,,,,,,,,,,
0.833333333,-0.813823993,1,0,0,next_button,0,3,3,3,1,4,"Su tarea es dividir las fichas que quedan en sus manos entre los dos.

Oprima la flecha para continuar",26686044,2021-04-21_12h54.07.430,DictadorBinary,2021.1.4,Linux armv7l,60.07449237,,,,,,,,,,,,,,,,,,,,,,,,,,,,,,,,,,,,,,,,,,,,,,,,,,,,,,,,,,,,,,,,,,,,,
0.818518575,-0.758082565,1,0,0,next_button,0,4,4,4,1,5,"Ninguno sabe el nombre del otro. 

Oprima la flecha para continuar.",26686044,2021-04-21_12h54.07.430,DictadorBinary,2021.1.4,Linux armv7l,60.07449237,,,,,,,,,,,,,,,,,,,,,,,,,,,,,,,,,,,,,,,,,,,,,,,,,,,,,,,,,,,,,,,,,,,,,
0.866666667,-0.794871863,1,0,0,next_button,0,5,5,5,1,6,"En cada turno, muevase al cuadro inferior para que aparezcan las cantidades. Desplacese a la cantidad que le daria al OTRO. 

Oprima la flecha para continuar.",26686044,2021-04-21_12h54.07.430,DictadorBinary,2021.1.4,Linux armv7l,60.07449237,,,,,,,,,,,,,,,,,,,,,,,,,,,,,,,,,,,,,,,,,,,,,,,,,,,,,,,,,,,,,,,,,,,,,
0.818518575,-0.789297659,1,0,0,next_button,0,6,6,6,1,7,"Si esta en su celular o una tableta, desplace su dedo por la pantalla mientras escoge.

Oprima la flecha para continuar.",26686044,2021-04-21_12h54.07.430,DictadorBinary,2021.1.4,Linux armv7l,60.07449237,,,,,,,,,,,,,,,,,,,,,,,,,,,,,,,,,,,,,,,,,,,,,,,,,,,,,,,,,,,,,,,,,,,,,
0.861111111,-0.783723659,1,0,0,next_button,0,7,7,7,1,8,"Empecemos con un entrenamiento corto para familiarizarse. 

Oprima la flecha para continuar.",26686044,2021-04-21_12h54.07.430,DictadorBinary,2021.1.4,Linux armv7l,60.07449237,,,,,,,,,,,,,,,,,,,,,,,,,,,,,,,,,,,,,,,,,,,,,,,,,,,,,,,,,,,,,,,,,,,,,
,,,,,,,,,,,,,26686044,2021-04-21_12h54.07.430,DictadorBinary,2021.1.4,Linux armv7l,60.07449237,0.848148261,-0.803790549,1,0,0,partition_image,Otro,"[0.8481482611762152,0.8314815945095486,0.8314815945095486,0.8277777777777777,0.8259260389539931,0.8259260389539931,0.8259260389539931,0.8259260389539931,0.8259260389539931,0.8259260389539931,0.8259260389539931,0.8259260389539931,0.8259260389539931,0.8259260389539931,0.8259260389539931,0.8259260389539931,0.8259260389539931,0.8259260389539931,0.8259260389539931,0.8259260389539931,0.8259260389539931,0.8259260389539931,0.8259260389539931,0.8259260389539931,0.8259260389539931,0.8259260389539931,0.8259260389539931,0.8259260389539931,0.8259260389539931,0.8259260389539931,0.8259260389539931,0.8259260389539931,0.8259260389539931,0.8259260389539931,0.8259260389539931,0.8259260389539931,0.8259260389539931,0.8259260389539931,0.8259260389539931,0.8259260389539931,0.8259260389539931,0.8259260389539931,0.8259260389539931,0.8259260389539931,0.8259260389539931,0.8259260389539931,0.8259260389539931,0.8259260389539931,0.8259260389539931,0.8259260389539931,0.8259260389539931,0.8259260389539931,0.8259260389539931,0.8259260389539931,0.8259260389539931,0.8259260389539931,0.8259260389539931,0.8259260389539931,0.8259260389539931,0.8259260389539931,0.8259260389539931,0.8259260389539931,0.8259260389539931,0.8259260389539931,0.8259260389539931,0.8259260389539931,0.8259260389539931,0.8259260389539931,0.8259260389539931,0.8259260389539931,0.8259260389539931,0.8259260389539931,0.8259260389539931,0.8259260389539931,0.8259260389539931,0.8259260389539931,0.8259260389539931,0.8259260389539931,0.8259260389539931,0.8259260389539931,0.8259260389539931,0.8259260389539931,0.8259260389539931,0.8259260389539931,0.8259260389539931,0.8259260389539931,0.8259260389539931,0.8259260389539931,0.8259260389539931,0.8259260389539931,0.8259260389539931,0.8259260389539931,0.8259260389539931,0.8259260389539931,0.8259260389539931,0.8259260389539931,0.8259260389539931,0.8259260389539931,0.8259260389539931,0.8259260389539931,0.8259260389539931,0.8259260389539931,0.8259260389539931,0.8259260389539931,0.8259260389539931,0.8259260389539931,0.8259260389539931,0.8259260389539931,0.8259260389539931,0.8259260389539931,0.8259260389539931,0.8259260389539931,0.8259260389539931,0.8259260389539931,0.8259260389539931,0.8259260389539931,0.8259260389539931,0.8259260389539931,0.8259260389539931,0.8259260389539931,0.8259260389539931,0.8259260389539931,0.8259260389539931,0.8259260389539931,0.8259260389539931,0.8259260389539931,0.8259260389539931,0.8259260389539931,0.8259260389539931,0.8259260389539931,0.8259260389539931,0.8259260389539931,0.8259260389539931,0.8259260389539931,0.8259260389539931,0.8259260389539931,0.8259260389539931,0.8259260389539931,0.8259260389539931,0.8259260389539931,0.8259260389539931,0.8259260389539931,0.8259260389539931,0.8259260389539931,0.8259260389539931,0.8259260389539931,0.8259260389539931,0.8259260389539931,0.8259260389539931,0.8259260389539931,0.8259260389539931,0.8259260389539931,0.8259260389539931,0.8259260389539931,0.8259260389539931,0.8259260389539931,0.8259260389539931,0.8259260389539931,0.8259260389539931,0.8259260389539931,0.8259260389539931,0.8259260389539931,0.8259260389539931,0.8259260389539931,0.8259260389539931,0.8259260389539931,0.8259260389539931,0.8259260389539931,0.8259260389539931,0.8259260389539931,0.8259260389539931,0.8259260389539931,0.8259260389539931,0.8259260389539931,0.8259260389539931,0.8259260389539931,0.8259260389539931,0.8259260389539931,0.8259260389539931,0.8259260389539931,0.8259260389539931,0.8259260389539931,0.8259260389539931,0.8259260389539931,0.8259260389539931,0.8259260389539931,0.8259260389539931,0.8259260389539931,0.8259260389539931,0.8259260389539931,0.8259260389539931,0.8259260389539931,0.8259260389539931,0.8259260389539931,0.8259260389539931,0.8259260389539931,0.8259260389539931,0.8259260389539931,0.8259260389539931,0.8259260389539931,0.8259260389539931,0.8259260389539931,0.8259260389539931,0.8259260389539931,0.8259260389539931,0.8259260389539931,0.8259260389539931,0.8259260389539931,0.8259260389539931,0.8259260389539931,0.8259260389539931,0.8259260389539931,0.8259260389539931,0.8259260389539931,0.8259260389539931,0.8259260389539931,0.8259260389539931,0.8259260389539931,0.8259260389539931,0.8259260389539931,0.8259260389539931,0.8259260389539931,0.8259260389539931,0.8259260389539931,0.8259260389539931,0.8259260389539931,0.8259260389539931,0.8259260389539931,0.8259260389539931,0.8259260389539931,0.8259260389539931,0.8259260389539931,0.8259260389539931,0.8259260389539931,0.8259260389539931,0.8259260389539931,0.8259260389539931,0.8259260389539931,0.8259260389539931,0.8259260389539931,0.8259260389539931,0.8259260389539931,0.8259260389539931,0.8259260389539931,0.8259260389539931,0.8259260389539931,0.8259260389539931,0.8259260389539931,0.8259260389539931,0.8259260389539931,0.8259260389539931,0.8259260389539931,0.8259260389539931,0.8259260389539931,0.8259260389539931,0.8259260389539931,0.8259260389539931,0.8259260389539931,0.8259260389539931,0.8259260389539931,-0.30925924513075087,-0.30925924513075087,-0.30925924513075087,-0.30925924513075087,-0.30925924513075087,-0.2925925784640842,-0.21666666666666667,-0.1592592027452257,-0.1592592027452257,-0.1111111111111111,-0.1111111111111111,-0.1111111111111111,-0.1111111111111111,-0.1111111111111111,-0.1111111111111111,-0.1111111111111111,-0.1111111111111111,-0.1111111111111111,0,0.05740746392144097,0.06851857503255208,0.06851857503255208,0.06851857503255208,0.06851857503255208,0.06851857503255208,0.06851857503255208,0.06851857503255208,0.06851857503255208,0.06851857503255208,0.06851857503255208,0.06851857503255208,0.06851857503255208,0.06851857503255208,0.06851857503255208,0.06851857503255208,0.06851857503255208,0.06851857503255208,0.06851857503255208,0.06851857503255208,0.06851857503255208,0.06851857503255208,0.06851857503255208,0.07037039862738716,0.07037039862738716,0.07222222222222222,0.07407413058810763,0.0759259541829427,0.0796296861436632,0.08333333333333333,0.08518524169921875,0.08888888888888889,0.09259262084960937,0.09629635281032986,0.09629635281032986,0.10185190836588541,0.10740746392144097,0.10925928751627605,0.1111111111111111,0.1148148430718316,0.11851857503255209,0.12407413058810764,0.1296296861436632,0.13703706529405382,0.14259262084960939,0.15,0.15740746392144098,0.16666666666666666,0.17222222222222222,0.1796296861436632,0.1870370652940538,0.19259262084960938,0.19814817640516494,0.20370373196072047,0.20740746392144097,0.20925928751627604,0.21296301947699653,0.2148148430718316,0.21666666666666667,0.2185185750325521,0.2185185750325521,0.2185185750325521,0.22037039862738717,0.22037039862738717,0.2222222222222222,0.22407413058810763,0.2259259541829427,0.22777777777777777,0.2296296861436632,0.23148150973849826,0.23333333333333334,0.23703706529405383,0.24259262084960936,0.24629635281032985,0.25,0.25555555555555554,0.259259287516276,0.2629630194769965,0.2685185750325521,0.2759259541829427,0.2777777777777778,0.2814815097384983,0.28518524169921877,0.2870370652940538,0.28888888888888886,0.28888888888888886,0.28888888888888886,0.28888888888888886,0.28888888888888886,0.28888888888888886,0.28888888888888886,0.28888888888888886,0.28888888888888886,0.28888888888888886,0.28888888888888886,0.2907407972547743,0.29259262084960935,0.29444444444444445,0.29629635281032984,0.3,0.3055555555555556,0.3111111111111111,0.32037039862738714,0.33148150973849827,0.3425926208496094,0.35925928751627606,0.37037039862738713,0.38333333333333336,0.3925926208496094,0.3981481764051649,0.40740746392144095,0.4166666666666667,0.4240741305881076,0.43518524169921874,0.4444444444444444,0.457407463921441,0.4703704833984375,0.4777777777777778,0.48333333333333334,0.48518524169921873,0.4888888888888889,0.4925927056206597,0.4981482611762153,0.5055555555555555,0.525926038953993,0.5425927056206598,0.5425927056206598,0.5425927056206598,0.5425927056206598,0.5425927056206598,0.5425927056206598,0.5425927056206598,0.5425927056206598,0.5425927056206598,0.5425927056206598,0.5425927056206598,0.5425927056206598,0.5425927056206598,0.5425927056206598,0.5425927056206598,0.5425927056206598,0.5425927056206598,0.5425927056206598,0.5425927056206598,0.5425927056206598,0.5425927056206598,0.5425927056206598,0.5425927056206598,0.5425927056206598,0.5425927056206598,0.5425927056206598,0.5425927056206598,0.5425927056206598,0.5425927056206598,0.5425927056206598,0.5425927056206598,0.5425927056206598,0.5425927056206598,0.5425927056206598,0.5425927056206598,0.5425927056206598,0.5425927056206598,0.5425927056206598,0.5425927056206598,0.5425927056206598,0.5425927056206598,0.5425927056206598,0.5425927056206598,0.5425927056206598,0.5425927056206598,0.5425927056206598,0.5425927056206598,0.5425927056206598,0.5425927056206598,0.5425927056206598,0.5425927056206598,0.5425927056206598,0.5425927056206598,0.5425927056206598,-0.0018518235948350695,-0.0018518235948350695,-0.0018518235948350695,-0.0018518235948350695,-0.0018518235948350695,0,0.0074074639214409725,0.020370398627387154,0.03703706529405382,0.05555555555555555,0.07407413058810763,0.09074079725477431,0.10925928751627605,0.12777777777777777,0.14444444444444443,0.16666666666666666,0.1907407972547743,0.21666666666666667,0.23518524169921876,0.2518519083658854,0.2685185750325521,0.2796296861436632,0.2870370652940538,0.29629635281032984,0.3055555555555556,0.31666666666666665,0.32592595418294273,0.33518524169921876,0.3462963528103299,0.35555555555555557,0.36296301947699655,0.37222222222222223,0.3796296861436632,0.38333333333333336,0.3870370652940538,0.3870370652940538,0.3870370652940538,0.3870370652940538,0.3870370652940538,0.3870370652940538,0.3870370652940538,0.3870370652940538,0.3870370652940538,0.3870370652940538,0.3870370652940538,0.3870370652940538,0.3870370652940538,0.3870370652940538,0.3870370652940538,0.3870370652940538,0.3870370652940538,0.3870370652940538,0.3870370652940538,0.3870370652940538,0.3870370652940538,0.3870370652940538,0.3870370652940538,0.3870370652940538,0.3870370652940538,0.3870370652940538,0.3870370652940538,0.3870370652940538,0.3870370652940538,0.3870370652940538,0.3870370652940538,0.3870370652940538,0.029629686143663195,0.029629686143663195,0.029629686143663195,0.029629686143663195,0.029629686143663195,0.029629686143663195,0.029629686143663195,0.029629686143663195,0.029629686143663195,0.029629686143663195,0.029629686143663195,0.029629686143663195,0.029629686143663195,0.029629686143663195,0.029629686143663195,0.029629686143663195,0.029629686143663195,0.029629686143663195,0.029629686143663195,0.029629686143663195,0.029629686143663195,0.029629686143663195,0.029629686143663195,0.029629686143663195,0.029629686143663195,0.029629686143663195,0.029629686143663195,0.029629686143663195,0.029629686143663195,0.029629686143663195,0.029629686143663195,0.029629686143663195,0.029629686143663195,0.029629686143663195,0.029629686143663195,0.029629686143663195,0.020370398627387154,0.016666666666666666,0.014814843071831597,0.014814843071831597,0.014814843071831597,0.014814843071831597,0.014814843071831597,0.016666666666666666,0.018518575032552085,0.020370398627387154,0.022222222222222223,0.024074130588107638,0.027777777777777776,0.027777777777777776,0.03148150973849827,0.03333333333333333,0.03518524169921875,0.04074079725477431,0.044444444444444446,0.05,0.05555555555555555,0.05740746392144097,0.06111111111111111,0.06666666666666667,0.07222222222222222,0.08148150973849827,0.08703706529405382,0.09444444444444444,0.10185190836588541,0.10925928751627605,0.1111111111111111,0.11666666666666667,0.11851857503255209,0.12222222222222222,0.12407413058810764,0.12407413058810764,0.12407413058810764,0.12222222222222222,0.12037039862738716,0.11666666666666667,0.11296301947699652,0.1111111111111111,0.10925928751627605,0.10555555555555556,0.10370373196072048,0.10185190836588541,0.1,0.1,0.09814817640516493,0.09629635281032986,0.09629635281032986,0.09444444444444444,0.09259262084960937,0.08888888888888889,0.08703706529405382,0.08518524169921875,0.08333333333333333,0.08333333333333333,0.08333333333333333,0.08333333333333333,0.08333333333333333,0.08333333333333333,0.08333333333333333,0.08333333333333333,0.08333333333333333,0.08518524169921875,0.08703706529405382,0.08888888888888889,0.09259262084960937,0.09629635281032986,0.1,0.10555555555555556,0.10925928751627605,0.11296301947699652,0.11851857503255209,0.12222222222222222,0.12777777777777777,0.13148150973849826,0.13518524169921875,0.1388888888888889,0.14259262084960939,0.14629635281032985,0.14814817640516492,0.1518519083658854,0.15555555555555556,0.15925928751627605,0.16296301947699654,0.16666666666666666,0.16851857503255208,0.17222222222222222,0.17407413058810764,0.17777777777777778,0.1796296861436632,0.18333333333333332,0.18518524169921874,0.18888888888888888,0.19259262084960938,0.19444444444444445,0.19444444444444445,0.19629635281032987,0.19814817640516494,0.2,0.20370373196072047,0.20555555555555555,0.20740746392144097,0.2111111111111111,0.21296301947699653,0.2148148430718316,0.21666666666666667,0.22037039862738717,0.2222222222222222,0.2222222222222222,0.2222222222222222,0.22407413058810763,0.2259259541829427,0.22777777777777777,0.2296296861436632,0.23148150973849826,0.23333333333333334,0.23703706529405383,0.2388888888888889,0.24074079725477432,0.24444444444444444,0.24629635281032985,0.25,0.25,0.2537037319607205,0.25555555555555554,0.257407463921441,0.259259287516276,0.2611111111111111,0.2629630194769965,0.2648148430718316,0.26666666666666666,0.2685185750325521,0.2685185750325521,0.27037039862738715,0.27037039862738715,0.2722222222222222,0.27407413058810765,0.27407413058810765,0.2759259541829427,0.2777777777777778,0.2777777777777778,0.2777777777777778,0.2777777777777778,0.2777777777777778,0.2777777777777778,0.2777777777777778,0.2777777777777778,0.2796296861436632,0.2796296861436632,0.2796296861436632,0.2796296861436632,0.2796296861436632,0.2796296861436632,0.2796296861436632,0.2796296861436632,0.2796296861436632,0.2796296861436632,0.2796296861436632,0.2796296861436632,0.2796296861436632,0.2796296861436632,0.2796296861436632,0.2796296861436632,0.2796296861436632,0.2796296861436632,0.2796296861436632,0.2796296861436632,0.2814815097384983,0.2814815097384983,0.2833333333333333,0.2833333333333333,0.28518524169921877,0.28518524169921877,0.2870370652940538,0.2870370652940538,0.28888888888888886,0.28888888888888886,0.2907407972547743,0.2907407972547743,0.29259262084960935,0.29259262084960935,0.29444444444444445,0.29629635281032984,0.29814817640516494,0.3,0.3,0.30185190836588544,0.309259287516276,0.309259287516276,0.309259287516276,0.309259287516276,0.309259287516276,0.309259287516276,0.309259287516276,0.309259287516276,0.309259287516276,0.309259287516276,0.309259287516276,0.309259287516276,0.309259287516276,0.309259287516276,0.309259287516276,0.309259287516276,0.309259287516276,0.309259287516276,0.309259287516276,0.309259287516276,0.309259287516276,0.309259287516276,0.309259287516276,0.309259287516276,0.309259287516276,0.309259287516276,0.309259287516276,0.309259287516276,0.309259287516276,0.309259287516276,0.309259287516276,0.309259287516276,0.309259287516276,0.309259287516276,0.309259287516276,0.309259287516276,0.309259287516276,0.309259287516276,0.309259287516276,0.309259287516276,0.309259287516276,0.309259287516276,0.309259287516276,0.309259287516276,0.309259287516276,0.309259287516276,0.309259287516276,0.309259287516276,0.309259287516276,0.309259287516276,0.309259287516276,0.309259287516276,0.309259287516276,0.309259287516276,0.309259287516276,0.309259287516276,0.309259287516276,0.309259287516276,0.309259287516276,0.309259287516276,0.309259287516276,0.309259287516276,0.309259287516276,0.309259287516276,0.309259287516276,0.309259287516276,0.309259287516276,0.309259287516276,0.309259287516276,0.309259287516276,0.309259287516276,0.309259287516276,0.309259287516276,0.309259287516276,0.309259287516276,0.309259287516276,0.309259287516276,0.309259287516276,0.309259287516276,0.309259287516276,0.309259287516276,0.309259287516276,0.309259287516276,0.309259287516276,0.309259287516276,0.309259287516276,0.309259287516276,0.309259287516276,0.309259287516276,0.309259287516276,0.309259287516276,0.309259287516276,0.309259287516276,0.309259287516276,0.309259287516276,0.309259287516276,0.309259287516276,0.309259287516276,0.309259287516276,0.309259287516276,0.309259287516276,0.309259287516276,0.309259287516276,0.309259287516276,0.309259287516276,0.309259287516276,0.309259287516276,0.309259287516276,0.309259287516276,0.309259287516276,0.309259287516276,0.309259287516276,0.309259287516276,0.309259287516276,0.309259287516276,0.309259287516276,0.309259287516276,0.309259287516276,0.309259287516276,0.309259287516276,0.309259287516276,0.309259287516276,0.309259287516276,0.309259287516276,0.309259287516276,0.309259287516276,0.309259287516276,-0.01481475830078125,-0.01481475830078125,-0.01481475830078125,-0.01481475830078125,-0.01481475830078125,-0.01481475830078125,-0.01481475830078125,-0.01481475830078125,-0.01481475830078125,-0.01481475830078125,-0.01481475830078125,-0.01481475830078125,-0.01481475830078125,-0.01481475830078125,-0.01481475830078125,-0.01481475830078125,-0.01481475830078125,-0.01481475830078125,-0.01481475830078125,-0.01481475830078125,-0.01481475830078125,-0.01481475830078125,-0.01481475830078125,-0.01481475830078125,-0.01481475830078125,-0.01481475830078125,-0.01481475830078125,-0.01481475830078125,-0.01481475830078125,-0.0018518235948350695,0.0018519083658854166,0.005555555555555556,0.0074074639214409725,0.011111111111111112,0.016666666666666666,0.025925954182942707,0.03333333333333333,0.04074079725477431,0.044444444444444446,0.04629635281032986,0.04814817640516493,0.05,0.05555555555555555,0.05740746392144097,0.06111111111111111,0.06851857503255208,0.07407413058810763,0.08148150973849827,0.08703706529405382,0.09259262084960937,0.1,0.10925928751627605,0.1148148430718316,0.12407413058810764,0.13703706529405382,0.14814817640516492,0.16111111111111112,0.17037039862738715,0.18333333333333332,0.19444444444444445,0.20370373196072047,0.2148148430718316,0.2222222222222222,0.23148150973849826,0.24259262084960936,0.25,0.25555555555555554,0.2648148430718316,0.2722222222222222,0.2777777777777778,0.2833333333333333,0.28888888888888886,0.29444444444444445,0.3,0.3055555555555556,0.309259287516276,0.31666666666666665,0.32222222222222224,0.32962968614366317,0.3333333333333333,0.3388888888888889,0.3425926208496094,0.34814817640516493,0.35370373196072047,0.35925928751627606,0.3648148430718316]","[-0.8037905485733695,-0.802675585284281,-0.802675585284281,-0.802675585284281,-0.802675585284281,-0.802675585284281,-0.8037905485733695,-0.8037905485733695,-0.8037905485733695,-0.8037905485733695,-0.8037905485733695,-0.8037905485733695,-0.8037905485733695,-0.8037905485733695,-0.8037905485733695,-0.8037905485733695,-0.8037905485733695,-0.8037905485733695,-0.8037905485733695,-0.8037905485733695,-0.8037905485733695,-0.8037905485733695,-0.8037905485733695,-0.8037905485733695,-0.8037905485733695,-0.8037905485733695,-0.8037905485733695,-0.8037905485733695,-0.8037905485733695,-0.8037905485733695,-0.8037905485733695,-0.8037905485733695,-0.8037905485733695,-0.8037905485733695,-0.8037905485733695,-0.8037905485733695,-0.8037905485733695,-0.8037905485733695,-0.8037905485733695,-0.8037905485733695,-0.8037905485733695,-0.8037905485733695,-0.8037905485733695,-0.8037905485733695,-0.8037905485733695,-0.8037905485733695,-0.8037905485733695,-0.8037905485733695,-0.8037905485733695,-0.8037905485733695,-0.8037905485733695,-0.8037905485733695,-0.8037905485733695,-0.8037905485733695,-0.8037905485733695,-0.8037905485733695,-0.8037905485733695,-0.8037905485733695,-0.8037905485733695,-0.8037905485733695,-0.8037905485733695,-0.8037905485733695,-0.8037905485733695,-0.8037905485733695,-0.8037905485733695,-0.8037905485733695,-0.8037905485733695,-0.8037905485733695,-0.8037905485733695,-0.8037905485733695,-0.8037905485733695,-0.8037905485733695,-0.8037905485733695,-0.8037905485733695,-0.8037905485733695,-0.8037905485733695,-0.8037905485733695,-0.8037905485733695,-0.8037905485733695,-0.8037905485733695,-0.8037905485733695,-0.8037905485733695,-0.8037905485733695,-0.8037905485733695,-0.8037905485733695,-0.8037905485733695,-0.8037905485733695,-0.8037905485733695,-0.8037905485733695,-0.8037905485733695,-0.8037905485733695,-0.8037905485733695,-0.8037905485733695,-0.8037905485733695,-0.8037905485733695,-0.8037905485733695,-0.8037905485733695,-0.8037905485733695,-0.8037905485733695,-0.8037905485733695,-0.8037905485733695,-0.8037905485733695,-0.8037905485733695,-0.8037905485733695,-0.8037905485733695,-0.8037905485733695,-0.8037905485733695,-0.8037905485733695,-0.8037905485733695,-0.8037905485733695,-0.8037905485733695,-0.8037905485733695,-0.8037905485733695,-0.8037905485733695,-0.8037905485733695,-0.8037905485733695,-0.8037905485733695,-0.8037905485733695,-0.8037905485733695,-0.8037905485733695,-0.8037905485733695,-0.8037905485733695,-0.8037905485733695,-0.8037905485733695,-0.8037905485733695,-0.8037905485733695,-0.8037905485733695,-0.8037905485733695,-0.8037905485733695,-0.8037905485733695,-0.8037905485733695,-0.8037905485733695,-0.8037905485733695,-0.8037905485733695,-0.8037905485733695,-0.8037905485733695,-0.8037905485733695,-0.8037905485733695,-0.8037905485733695,-0.8037905485733695,-0.8037905485733695,-0.8037905485733695,-0.8037905485733695,-0.8037905485733695,-0.8037905485733695,-0.8037905485733695,-0.8037905485733695,-0.8037905485733695,-0.8037905485733695,-0.8037905485733695,-0.8037905485733695,-0.8037905485733695,-0.8037905485733695,-0.8037905485733695,-0.8037905485733695,-0.8037905485733695,-0.8037905485733695,-0.8037905485733695,-0.8037905485733695,-0.8037905485733695,-0.8037905485733695,-0.8037905485733695,-0.8037905485733695,-0.8037905485733695,-0.8037905485733695,-0.8037905485733695,-0.8037905485733695,-0.8037905485733695,-0.8037905485733695,-0.8037905485733695,-0.8037905485733695,-0.8037905485733695,-0.8037905485733695,-0.8037905485733695,-0.8037905485733695,-0.8037905485733695,-0.8037905485733695,-0.8037905485733695,-0.8037905485733695,-0.8037905485733695,-0.8037905485733695,-0.8037905485733695,-0.8037905485733695,-0.8037905485733695,-0.8037905485733695,-0.8037905485733695,-0.8037905485733695,-0.8037905485733695,-0.8037905485733695,-0.8037905485733695,-0.8037905485733695,-0.8037905485733695,-0.8037905485733695,-0.8037905485733695,-0.8037905485733695,-0.8037905485733695,-0.8037905485733695,-0.8037905485733695,-0.8037905485733695,-0.8037905485733695,-0.8037905485733695,-0.8037905485733695,-0.8037905485733695,-0.8037905485733695,-0.8037905485733695,-0.8037905485733695,-0.8037905485733695,-0.8037905485733695,-0.8037905485733695,-0.8037905485733695,-0.8037905485733695,-0.8037905485733695,-0.8037905485733695,-0.8037905485733695,-0.8037905485733695,-0.8037905485733695,-0.8037905485733695,-0.8037905485733695,-0.8037905485733695,-0.8037905485733695,-0.8037905485733695,-0.8037905485733695,-0.8037905485733695,-0.8037905485733695,-0.8037905485733695,-0.8037905485733695,-0.8037905485733695,-0.8037905485733695,-0.8037905485733695,-0.8037905485733695,-0.8037905485733695,-0.8037905485733695,-0.8037905485733695,-0.8037905485733695,-0.8037905485733695,-0.8037905485733695,-0.8037905485733695,-0.8037905485733695,-0.8037905485733695,-0.8037905485733695,-0.8037905485733695,-0.8037905485733695,-0.8037905485733695,-0.8037905485733695,-0.8037905485733695,-0.8037905485733695,-0.8037905485733695,-0.8037905485733695,-0.8037905485733695,-0.8037905485733695,-0.8037905485733695,-0.8037905485733695,-0.8037905485733695,-0.8037905485733695,-0.8037905485733695,-0.8037905485733695,-0.8037905485733695,-0.8037905485733695,-0.8037905485733695,-0.8037905485733695,-0.6220735785953178,-0.6220735785953178,-0.6220735785953178,-0.6220735785953178,-0.6220735785953178,-0.6198439582135765,-0.6131549950028742,-0.6086956521739131,-0.6086956521739131,-0.6053511705685619,-0.6053511705685619,-0.6053511705685619,-0.6053511705685619,-0.6053511705685619,-0.6053511705685619,-0.6053511705685619,-0.6053511705685619,-0.6053511705685619,-0.5997770685814695,-0.5964325869761183,-0.5964325869761183,-0.5964325869761183,-0.5964325869761183,-0.5964325869761183,-0.5964325869761183,-0.5964325869761183,-0.5964325869761183,-0.5964325869761183,-0.5964325869761183,-0.5964325869761183,-0.5964325869761183,-0.5964325869761183,-0.5964325869761183,-0.5964325869761183,-0.5964325869761183,-0.5964325869761183,-0.5964325869761183,-0.5964325869761183,-0.5964325869761183,-0.5964325869761183,-0.5953177257525084,-0.5953177257525084,-0.5942029665943771,-0.5942029665943771,-0.5930881053707672,-0.5919732441471572,-0.5908584849890259,-0.5886287625418061,-0.5863991421600648,-0.5841695217783236,-0.5819397993311036,-0.5785953177257525,-0.5752508361204013,-0.5752508361204013,-0.5707915953569189,-0.5652173913043478,-0.5641026321462166,-0.5607581505408654,-0.5562988077119043,-0.5518394648829431,-0.5462653628958507,-0.5395763996851484,-0.532887436474446,-0.5250836120401338,-0.5161650284476902,-0.5072464448552466,-0.4983277591973244,-0.4882943143812709,-0.4771461104070861,-0.4637681839856814,-0.4492753963406668,-0.432552988313911,-0.41694544151076507,-0.4024526538657504,-0.3879598662207358,-0.37569680102294106,-0.36454849498327757,-0.35451505016722407,-0.3433668461930393,-0.3277591973244147,-0.31326651174487874,-0.2976588628762542,-0.2831661772967182,-0.2664437692699624,-0.2497213612432065,-0.23299895321645067,-0.21627654518969483,-0.1962096555575878,-0.17168342309651966,-0.14381270903010032,-0.11482723580554975,-0.0903010033444816,-0.07134897493598454,-0.05351170568561873,-0.04013377926421405,-0.030100334448160536,-0.022296612079326924,-0.012263167263273412,0.0022296203817412205,0.006688963210702341,0.014492685579535954,0.021181648790238296,0.024526130395589464,0.027870612000940636,0.027870612000940636,0.027870612000940636,0.027870612000940636,0.027870612000940636,0.027870612000940636,0.027870612000940636,0.028985473224550584,0.028985473224550584,0.031215093606291808,0.033444816053511704,0.04013377926421405,0.05016722408026756,0.061315428054452344,0.07357859531772576,0.08807128089726171,0.10479368892401755,0.12263095817438337,0.14492751922097094,0.16833889045842915,0.1950947433012385,0.21962092472956732,0.24191748577615488,0.25975470399378137,0.2753623018296666,0.2842809364548495,0.2954291914617736,0.3076923076923077,0.31995537289010245,0.3311036789297659,0.34225193393669,0.35005570733826297,0.35785953177257523,0.3612040133779264,0.362318823568797,0.3612040133779264,0.36008915215431647,0.35785953177257523,0.35451505016722407,0.34782608695652173,0.33444816053511706,0.3266443361008048,0.3266443361008048,0.3266443361008048,0.3266443361008048,0.3266443361008048,0.3266443361008048,0.3266443361008048,0.3266443361008048,0.3266443361008048,0.3266443361008048,0.3266443361008048,0.3266443361008048,0.3266443361008048,0.3266443361008048,0.3266443361008048,0.3266443361008048,0.3266443361008048,0.3266443361008048,0.3266443361008048,0.3266443361008048,0.3266443361008048,0.3266443361008048,0.3266443361008048,0.3266443361008048,0.3266443361008048,0.3266443361008048,0.3266443361008048,0.3266443361008048,0.3266443361008048,0.3266443361008048,0.3266443361008048,0.3266443361008048,0.3266443361008048,0.3266443361008048,0.3266443361008048,0.3266443361008048,0.3266443361008048,0.3266443361008048,0.3266443361008048,0.3266443361008048,0.3266443361008048,0.3266443361008048,0.3266443361008048,0.3266443361008048,0.3266443361008048,0.3266443361008048,0.3266443361008048,0.3266443361008048,0.3266443361008048,0.3266443361008048,0.3266443361008048,0.3266443361008048,0.3266443361008048,0.3266443361008048,-0.6845039699388586,-0.6845039699388586,-0.6845039699388586,-0.6845039699388586,-0.6755852842809364,-0.6655518394648829,-0.651059153885347,-0.6287625418060201,-0.5942029665943771,-0.5540691873301631,-0.5083612040133779,-0.4637681839856814,-0.4225195434978574,-0.38573024583899457,-0.35451505016722407,-0.31884061373197115,-0.2787068344677571,-0.23522857359819188,-0.19509479433397783,-0.15607587629337374,-0.11928657863451086,-0.08807138296274039,-0.06688963210702341,-0.041248640487824,-0.017837269250365804,0.006688963210702341,0.028985473224550584,0.05016722408026756,0.06911925248876463,0.08695652173913043,0.10256406854227634,0.11594199496368102,0.12597543977973452,0.13377926421404682,0.13712374581939799,0.13712374581939799,0.13712374581939799,0.13712374581939799,0.13712374581939799,0.13712374581939799,0.13712374581939799,0.13712374581939799,0.13712374581939799,0.13712374581939799,0.13712374581939799,0.13712374581939799,0.13712374581939799,0.13712374581939799,0.13712374581939799,0.13712374581939799,0.13712374581939799,0.13712374581939799,0.13712374581939799,0.13712374581939799,0.13712374581939799,0.13712374581939799,0.13712374581939799,0.13712374581939799,0.13712374581939799,0.13712374581939799,0.13712374581939799,0.13712374581939799,0.13712374581939799,0.13712374581939799,0.13712374581939799,0.13712374581939799,-0.6053511705685619,-0.6053511705685619,-0.6053511705685619,-0.6053511705685619,-0.6053511705685619,-0.6053511705685619,-0.6053511705685619,-0.6053511705685619,-0.6053511705685619,-0.6053511705685619,-0.6053511705685619,-0.6053511705685619,-0.6053511705685619,-0.6053511705685619,-0.6053511705685619,-0.6053511705685619,-0.6053511705685619,-0.6053511705685619,-0.6053511705685619,-0.6053511705685619,-0.6053511705685619,-0.6053511705685619,-0.6053511705685619,-0.6053511705685619,-0.6053511705685619,-0.6053511705685619,-0.6053511705685619,-0.6053511705685619,-0.6053511705685619,-0.6053511705685619,-0.6053511705685619,-0.6053511705685619,-0.6053511705685619,-0.6053511705685619,-0.6053511705685619,-0.6053511705685619,-0.5942029665943771,-0.5886287625418061,-0.5830546605547137,-0.5819397993311036,-0.5774805585676213,-0.5730212157386602,-0.5674471137515678,-0.5607581505408654,-0.552954326106553,-0.5451505016722408,-0.5362319180797972,-0.5273133344873536,-0.5183946488294314,-0.5094760652369879,-0.5016722408026756,-0.493868518433842,-0.4860646939995297,-0.47603124918347617,-0.46599780436742266,-0.45484949832775917,-0.4425864331299645,-0.43032336793216974,-0.4180602006688963,-0.40356751508936034,-0.3868451070626045,-0.36789297658862874,-0.3467113277983905,-0.3255295769426735,-0.30434782608695654,-0.2831661772967182,-0.2630992876646112,-0.24637687963785534,-0.22853961038748954,-0.20958758197899247,-0.19063545150501673,-0.17168342309651966,-0.15607587629337374,-0.1393534682666179,-0.12374581939799331,-0.10702341137123746,-0.0925307257917015,-0.07692307692307693,-0.061315530119931023,-0.04905246492213629,-0.03567453850073161,-0.022296612079326924,-0.010033444816053512,0.001114759158131271,0.013377926421404682,0.025640991619199416,0.03678929765886288,0.04905236285665761,0.06020066889632107,0.07134887287050586,0.08249717891016932,0.09364548494983277,0.10256406854227634,0.10925303175297868,0.11705685618729098,0.12263095817438337,0.12820506016147576,0.1348940233721781,0.14046822742474915,0.1482720008263221,0.15719063545150502,0.16722408026755853,0.17837233527448265,0.18952059028140678,0.20066889632107024,0.21070234113712374,0.22073578595317725,0.23076923076923078,0.23968781436167433,0.24860644898685724,0.2564102223884302,0.26421404682274247,0.2720178202243154,0.2798215936258884,0.2865105568365907,0.29208470985642243,0.2976588628762542,0.30434782608695654,0.3099219280740489,0.31549608109388066,0.3210702341137124,0.3266443361008048,0.3311036789297659,0.3366777809168583,0.3411371237458194,0.3467112257329118,0.3511705685618729,0.3567446705489653,0.3612040133779264,0.3667781153650188,0.3712374581939799,0.3768115601810723,0.38127090301003347,0.3857301948062552,0.3890746764116064,0.39353396820782816,0.3968784498131793,0.4013377926421405,0.40468227424749165,0.40914156604371343,0.4124860476490646,0.4169453394452864,0.42028982105063756,0.42474916387959866,0.4280936454849498,0.431438127090301,0.43478260869565216,0.4370122290773934,0.43924190049187395,0.4414715719063545,0.44370119228809574,0.4459308637025763,0.44816053511705684,0.451505016722408,0.45484949832775917,0.4570791187095004,0.4604236003148516,0.46376808192020275,0.4659977533346833,0.46934223494003446,0.47157190635451507,0.47491638795986624,0.4771460083416074,0.4804904899469586,0.4827201613614392,0.48494983277591974,0.487179453157661,0.48940912457214153,0.4916387959866221,0.4927536061774927,0.49498327759197325,0.49609808778284387,0.4972128979737145,0.4983277591973244,0.49944256938819503,0.5005573795790657,0.5016722408026756,0.5039018611844168,0.5050167224080268,0.5061315325988973,0.507246342789768,0.5083612040133779,0.5094760142042485,0.5105908243951192,0.5117056856187291,0.5128204958095997,0.5128204958095997,0.5139353060004703,0.5139353060004703,0.5150501672240803,0.5150501672240803,0.5150501672240803,0.5150501672240803,0.5150501672240803,0.5150501672240803,0.5150501672240803,0.5150501672240803,0.5150501672240803,0.5150501672240803,0.5150501672240803,0.5150501672240803,0.5150501672240803,0.5150501672240803,0.5150501672240803,0.5150501672240803,0.5150501672240803,0.5150501672240803,0.5150501672240803,0.5150501672240803,0.5161649774149509,0.5161649774149509,0.5172797876058215,0.5172797876058215,0.5183946488294314,0.5195094590203021,0.5206242692111727,0.5217391304347826,0.5239687508165238,0.5261984222310044,0.527313232421875,0.5295429038363556,0.5317725752508361,0.5340021956325773,0.5362318670470579,0.5373466772379285,0.5384615384615384,0.5451505016722408,0.5451505016722408,0.5451505016722408,0.5451505016722408,0.5451505016722408,0.5451505016722408,0.5451505016722408,0.5451505016722408,0.5451505016722408,0.5451505016722408,0.5451505016722408,0.5451505016722408,0.5451505016722408,0.5451505016722408,0.5451505016722408,0.5451505016722408,0.5451505016722408,0.5451505016722408,0.5451505016722408,0.5451505016722408,0.5451505016722408,0.5451505016722408,0.5451505016722408,0.5451505016722408,0.5451505016722408,0.5451505016722408,0.5451505016722408,0.5451505016722408,0.5451505016722408,0.5451505016722408,0.5451505016722408,0.5451505016722408,0.5451505016722408,0.5451505016722408,0.5451505016722408,0.5451505016722408,0.5451505016722408,0.5451505016722408,0.5451505016722408,0.5451505016722408,0.5451505016722408,0.5451505016722408,0.5451505016722408,0.5451505016722408,0.5451505016722408,0.5451505016722408,0.5451505016722408,0.5451505016722408,0.5451505016722408,0.5451505016722408,0.5451505016722408,0.5451505016722408,0.5451505016722408,0.5451505016722408,0.5451505016722408,0.5451505016722408,0.5451505016722408,0.5451505016722408,0.5451505016722408,0.5451505016722408,0.5451505016722408,0.5451505016722408,0.5451505016722408,0.5451505016722408,0.5451505016722408,0.5451505016722408,0.5451505016722408,0.5451505016722408,0.5451505016722408,0.5451505016722408,0.5451505016722408,0.5451505016722408,0.5451505016722408,0.5451505016722408,0.5451505016722408,0.5451505016722408,0.5451505016722408,0.5451505016722408,0.5451505016722408,0.5451505016722408,0.5451505016722408,0.5451505016722408,0.5451505016722408,0.5451505016722408,0.5451505016722408,0.5451505016722408,0.5451505016722408,0.5451505016722408,0.5451505016722408,0.5451505016722408,0.5451505016722408,0.5451505016722408,0.5451505016722408,0.5451505016722408,0.5451505016722408,0.5451505016722408,0.5451505016722408,0.5451505016722408,0.5451505016722408,0.5451505016722408,0.5451505016722408,0.5451505016722408,0.5451505016722408,0.5451505016722408,0.5451505016722408,0.5451505016722408,0.5451505016722408,0.5451505016722408,0.5451505016722408,0.5451505016722408,0.5451505016722408,0.5451505016722408,0.5451505016722408,0.5451505016722408,0.5451505016722408,0.5451505016722408,0.5451505016722408,0.5451505016722408,0.5451505016722408,0.5451505016722408,0.5451505016722408,0.5451505016722408,0.5451505016722408,0.5451505016722408,0.5451505016722408,0.5451505016722408,0.5451505016722408,-0.5395763996851484,-0.5395763996851484,-0.5395763996851484,-0.5395763996851484,-0.5395763996851484,-0.5395763996851484,-0.5395763996851484,-0.5395763996851484,-0.5395763996851484,-0.5395763996851484,-0.5395763996851484,-0.5395763996851484,-0.5395763996851484,-0.5395763996851484,-0.5395763996851484,-0.5395763996851484,-0.5395763996851484,-0.5395763996851484,-0.5395763996851484,-0.5395763996851484,-0.5395763996851484,-0.5395763996851484,-0.5395763996851484,-0.5395763996851484,-0.5395763996851484,-0.5395763996851484,-0.5395763996851484,-0.5395763996851484,-0.5395763996851484,-0.5284280936454849,-0.5239688528820025,-0.5195095100530414,-0.5172798896713001,-0.5105909264605978,-0.4960981388155832,-0.47380162880173493,-0.44816053511705684,-0.4214046822742475,-0.39353407027330684,-0.36454849498327757,-0.335563021758727,-0.3110367892976589,-0.28985514050742056,-0.2731327324806647,-0.2564103244539089,-0.23745819397993312,-0.21850616557143604,-0.198439275939329,-0.178372386307222,-0.1594203578987249,-0.13823860704300794,-0.11482723580554975,-0.09141586456809156,-0.0590859097381898,-0.018952130473975752,0.025640991619199416,0.06800439126515469,0.10813817052936874,0.14381270903010032,0.18283162707070444,0.22073578595317725,0.2564102223884302,0.2898550384419419,0.31995537289010245,0.3467112257329118,0.36789297658862874,0.3890746764116064,0.4080267558528428,0.4269787842613399,0.4414715719063545,0.45819397993311034,0.47380152673625625,0.487179453157661,0.49944256938819503,0.5105908243951192,0.5195094590203021,0.5295429038363556,0.5406911588432797,0.5507246036593332,0.5574135668700355,0.5652173913043478,0.5719063545150501,0.5797101279166231,0.5875139268345657,0.596432535943379,0.6064659807594325]","[1,1,1,1,1,1,0,0,0,0,0,0,0,0,0,0,0,0,0,0,0,0,0,0,0,0,0,0,0,0,0,0,0,0,0,0,0,0,0,0,0,0,0,0,0,0,0,0,0,0,0,0,0,0,0,0,0,0,0,0,0,0,0,0,0,0,0,0,0,0,0,0,0,0,0,0,0,0,0,0,0,0,0,0,0,0,0,0,0,0,0,0,0,0,0,0,0,0,0,0,0,0,0,0,0,0,0,0,0,0,0,0,0,0,0,0,0,0,0,0,0,0,0,0,0,0,0,0,0,0,0,0,0,0,0,0,0,0,0,0,0,0,0,0,0,0,0,0,0,0,0,0,0,0,0,0,0,0,0,0,0,0,0,0,0,0,0,0,0,0,0,0,0,0,0,0,0,0,0,0,0,0,0,0,0,0,0,0,0,0,0,0,0,0,0,0,0,0,0,0,0,0,0,0,0,0,0,0,0,0,0,0,0,0,0,0,0,0,0,0,0,0,0,0,0,0,0,0,0,0,0,0,0,0,0,0,0,0,0,0,0,0,0,0,0,0,0,0,0,0,0,0,0,0,0,0,0,0,0,0,1,1,1,1,1,1,1,1,1,1,1,1,1,1,1,1,1,1,1,1,1,1,1,1,1,1,1,1,1,1,1,1,1,1,1,1,1,1,1,1,1,1,1,1,1,1,1,1,1,1,1,1,1,1,1,1,1,1,1,1,1,1,1,1,1,1,1,1,1,1,1,1,1,1,1,1,1,1,1,1,1,1,1,1,1,1,1,1,1,1,1,1,1,1,1,1,1,1,1,1,1,1,1,1,1,1,1,1,1,1,1,1,1,1,1,1,1,1,1,1,1,1,1,1,1,1,1,1,1,1,1,1,1,1,1,1,1,1,1,1,1,1,1,1,0,0,0,0,0,0,0,0,0,0,0,0,0,0,0,0,0,0,0,0,0,0,0,0,0,0,0,0,0,0,0,0,0,0,0,0,0,0,0,0,0,0,0,0,0,0,0,0,0,0,0,0,0,0,1,1,1,1,1,1,1,1,1,1,1,1,1,1,1,1,1,1,1,1,1,1,1,1,1,1,1,1,1,1,1,1,1,1,1,1,0,0,0,0,0,0,0,0,0,0,0,0,0,0,0,0,0,0,0,0,0,0,0,0,0,0,0,0,0,0,1,1,1,1,1,1,1,1,1,1,1,1,1,1,1,1,1,1,1,1,1,1,1,1,1,1,1,1,1,1,1,1,1,1,1,1,1,1,1,1,1,1,1,1,1,1,1,1,1,1,1,1,1,1,1,1,1,1,1,1,1,1,1,1,1,1,1,1,1,1,1,1,1,1,1,1,1,1,1,1,1,1,1,1,1,1,1,1,1,1,1,1,1,1,1,1,1,1,1,1,1,1,1,1,1,1,1,1,1,1,1,1,1,1,1,1,1,1,1,1,1,1,1,1,1,1,1,1,1,1,1,1,1,1,1,1,1,1,1,1,1,1,1,1,1,1,1,1,1,1,1,1,1,1,1,1,1,1,1,1,1,1,1,1,1,1,1,1,1,1,1,1,1,1,1,1,1,1,1,1,1,1,1,1,1,1,1,1,1,1,1,1,1,1,1,1,1,1,1,1,1,1,1,1,1,1,1,1,1,1,1,1,1,1,1,1,1,1,1,1,1,1,1,1,1,1,1,0,0,0,0,0,0,0,0,0,0,0,0,0,0,0,0,0,0,0,0,0,0,0,0,0,0,0,0,0,0,0,0,0,0,0,0,0,0,0,0,0,0,0,0,0,0,0,0,0,0,0,0,0,0,0,0,0,0,0,0,0,0,0,0,0,0,0,0,0,0,0,0,0,0,0,0,0,0,0,0,0,0,0,0,0,0,0,0,0,0,0,0,0,0,0,0,0,0,0,0,0,0,0,0,0,0,0,0,0,0,0,0,0,0,0,0,0,0,0,0,0,0,0,0,0,0,1,1,1,1,1,1,1,1,1,1,1,1,1,1,1,1,1,1,1,1,1,1,1,1,1,1,1,1,1,1,1,1,1,1,1,1,1,1,1,1,1,1,1,1,1,1,1,1,1,1,1,1,1,1,1,1,1,1,1,1,1,1,1,1,1,1,1,1,1,1,1,1,1,1,1,1,1,1,1,1,1,1,1,1,1,1]","[0,0,0,0,0,0,0,0,0,0,0,0,0,0,0,0,0,0,0,0,0,0,0,0,0,0,0,0,0,0,0,0,0,0,0,0,0,0,0,0,0,0,0,0,0,0,0,0,0,0,0,0,0,0,0,0,0,0,0,0,0,0,0,0,0,0,0,0,0,0,0,0,0,0,0,0,0,0,0,0,0,0,0,0,0,0,0,0,0,0,0,0,0,0,0,0,0,0,0,0,0,0,0,0,0,0,0,0,0,0,0,0,0,0,0,0,0,0,0,0,0,0,0,0,0,0,0,0,0,0,0,0,0,0,0,0,0,0,0,0,0,0,0,0,0,0,0,0,0,0,0,0,0,0,0,0,0,0,0,0,0,0,0,0,0,0,0,0,0,0,0,0,0,0,0,0,0,0,0,0,0,0,0,0,0,0,0,0,0,0,0,0,0,0,0,0,0,0,0,0,0,0,0,0,0,0,0,0,0,0,0,0,0,0,0,0,0,0,0,0,0,0,0,0,0,0,0,0,0,0,0,0,0,0,0,0,0,0,0,0,0,0,0,0,0,0,0,0,0,0,0,0,0,0,0,0,0,0,0,0,0,0,0,0,0,0,0,0,0,0,0,0,0,0,0,0,0,0,0,0,0,0,0,0,0,0,0,0,0,0,0,0,0,0,0,0,0,0,0,0,0,0,0,0,0,0,0,0,0,0,0,0,0,0,0,0,0,0,0,0,0,0,0,0,0,0,0,0,0,0,0,0,0,0,0,0,0,0,0,0,0,0,0,0,0,0,0,0,0,0,0,0,0,0,0,0,0,0,0,0,0,0,0,0,0,0,0,0,0,0,0,0,0,0,0,0,0,0,0,0,0,0,0,0,0,0,0,0,0,0,0,0,0,0,0,0,0,0,0,0,0,0,0,0,0,0,0,0,0,0,0,0,0,0,0,0,0,0,0,0,0,0,0,0,0,0,0,0,0,0,0,0,0,0,0,0,0,0,0,0,0,0,0,0,0,0,0,0,0,0,0,0,0,0,0,0,0,0,0,0,0,0,0,0,0,0,0,0,0,0,0,0,0,0,0,0,0,0,0,0,0,0,0,0,0,0,0,0,0,0,0,0,0,0,0,0,0,0,0,0,0,0,0,0,0,0,0,0,0,0,0,0,0,0,0,0,0,0,0,0,0,0,0,0,0,0,0,0,0,0,0,0,0,0,0,0,0,0,0,0,0,0,0,0,0,0,0,0,0,0,0,0,0,0,0,0,0,0,0,0,0,0,0,0,0,0,0,0,0,0,0,0,0,0,0,0,0,0,0,0,0,0,0,0,0,0,0,0,0,0,0,0,0,0,0,0,0,0,0,0,0,0,0,0,0,0,0,0,0,0,0,0,0,0,0,0,0,0,0,0,0,0,0,0,0,0,0,0,0,0,0,0,0,0,0,0,0,0,0,0,0,0,0,0,0,0,0,0,0,0,0,0,0,0,0,0,0,0,0,0,0,0,0,0,0,0,0,0,0,0,0,0,0,0,0,0,0,0,0,0,0,0,0,0,0,0,0,0,0,0,0,0,0,0,0,0,0,0,0,0,0,0,0,0,0,0,0,0,0,0,0,0,0,0,0,0,0,0,0,0,0,0,0,0,0,0,0,0,0,0,0,0,0,0,0,0,0,0,0,0,0,0,0,0,0,0,0,0,0,0,0,0,0,0,0,0,0,0,0,0,0,0,0,0,0,0,0,0,0,0,0,0,0,0,0,0,0,0,0,0,0,0,0,0,0,0,0,0,0,0,0,0,0,0,0,0,0,0,0,0,0,0,0,0,0,0,0,0,0,0,0,0,0,0,0,0,0,0,0,0,0,0,0,0,0,0,0,0,0,0,0,0,0,0,0,0,0,0,0,0,0,0,0,0,0,0,0,0,0,0,0,0,0,0,0,0,0,0,0,0,0,0,0,0,0,0,0,0,0,0,0,0,0,0,0,0,0,0,0,0,0,0,0,0,0,0,0,0,0,0,0,0,0,0,0,0,0,0,0,0,0,0,0,0,0,0,0,0,0,0,0,0,0,0,0,0,0,0,0,0,0,0,0,0,0,0,0,0,0,0,0,0,0,0,0,0,0,0,0,0,0,0,0,0,0,0,0,0,0,0,0,0,0,0,0,0,0,0,0,0,0,0,0]","[0,0,0,0,0,0,0,0,0,0,0,0,0,0,0,0,0,0,0,0,0,0,0,0,0,0,0,0,0,0,0,0,0,0,0,0,0,0,0,0,0,0,0,0,0,0,0,0,0,0,0,0,0,0,0,0,0,0,0,0,0,0,0,0,0,0,0,0,0,0,0,0,0,0,0,0,0,0,0,0,0,0,0,0,0,0,0,0,0,0,0,0,0,0,0,0,0,0,0,0,0,0,0,0,0,0,0,0,0,0,0,0,0,0,0,0,0,0,0,0,0,0,0,0,0,0,0,0,0,0,0,0,0,0,0,0,0,0,0,0,0,0,0,0,0,0,0,0,0,0,0,0,0,0,0,0,0,0,0,0,0,0,0,0,0,0,0,0,0,0,0,0,0,0,0,0,0,0,0,0,0,0,0,0,0,0,0,0,0,0,0,0,0,0,0,0,0,0,0,0,0,0,0,0,0,0,0,0,0,0,0,0,0,0,0,0,0,0,0,0,0,0,0,0,0,0,0,0,0,0,0,0,0,0,0,0,0,0,0,0,0,0,0,0,0,0,0,0,0,0,0,0,0,0,0,0,0,0,0,0,0,0,0,0,0,0,0,0,0,0,0,0,0,0,0,0,0,0,0,0,0,0,0,0,0,0,0,0,0,0,0,0,0,0,0,0,0,0,0,0,0,0,0,0,0,0,0,0,0,0,0,0,0,0,0,0,0,0,0,0,0,0,0,0,0,0,0,0,0,0,0,0,0,0,0,0,0,0,0,0,0,0,0,0,0,0,0,0,0,0,0,0,0,0,0,0,0,0,0,0,0,0,0,0,0,0,0,0,0,0,0,0,0,0,0,0,0,0,0,0,0,0,0,0,0,0,0,0,0,0,0,0,0,0,0,0,0,0,0,0,0,0,0,0,0,0,0,0,0,0,0,0,0,0,0,0,0,0,0,0,0,0,0,0,0,0,0,0,0,0,0,0,0,0,0,0,0,0,0,0,0,0,0,0,0,0,0,0,0,0,0,0,0,0,0,0,0,0,0,0,0,0,0,0,0,0,0,0,0,0,0,0,0,0,0,0,0,0,0,0,0,0,0,0,0,0,0,0,0,0,0,0,0,0,0,0,0,0,0,0,0,0,0,0,0,0,0,0,0,0,0,0,0,0,0,0,0,0,0,0,0,0,0,0,0,0,0,0,0,0,0,0,0,0,0,0,0,0,0,0,0,0,0,0,0,0,0,0,0,0,0,0,0,0,0,0,0,0,0,0,0,0,0,0,0,0,0,0,0,0,0,0,0,0,0,0,0,0,0,0,0,0,0,0,0,0,0,0,0,0,0,0,0,0,0,0,0,0,0,0,0,0,0,0,0,0,0,0,0,0,0,0,0,0,0,0,0,0,0,0,0,0,0,0,0,0,0,0,0,0,0,0,0,0,0,0,0,0,0,0,0,0,0,0,0,0,0,0,0,0,0,0,0,0,0,0,0,0,0,0,0,0,0,0,0,0,0,0,0,0,0,0,0,0,0,0,0,0,0,0,0,0,0,0,0,0,0,0,0,0,0,0,0,0,0,0,0,0,0,0,0,0,0,0,0,0,0,0,0,0,0,0,0,0,0,0,0,0,0,0,0,0,0,0,0,0,0,0,0,0,0,0,0,0,0,0,0,0,0,0,0,0,0,0,0,0,0,0,0,0,0,0,0,0,0,0,0,0,0,0,0,0,0,0,0,0,0,0,0,0,0,0,0,0,0,0,0,0,0,0,0,0,0,0,0,0,0,0,0,0,0,0,0,0,0,0,0,0,0,0,0,0,0,0,0,0,0,0,0,0,0,0,0,0,0,0,0,0,0,0,0,0,0,0,0,0,0,0,0,0,0,0,0,0,0,0,0,0,0,0,0,0,0,0,0,0,0,0,0,0,0,0,0,0,0,0,0,0,0,0,0,0,0,0,0,0,0,0,0,0,0,0,0,0,0,0,0,0,0,0,0,0,0,0,0,0,0,0,0,0,0,0,0,0,0,0,0,0,0,0,0,0,0,0,0,0,0,0,0,0,0,0,0,0,0,0,0,0,0,0,0,0,0,0,0,0,0,0,0,0,0,0,0,0,0,0,0,0,0,0,0,0,0,0,0,0,0,0,0,0,0,0,0,0,0,0,0,0,0,0,0,0,0]","[0.00010000000111176632,0.018899999999121064,0.033400000000256114,0.05010000000038417,0.06739999999990687,0.08269999999902211,0.0996000000013737,0.11530000000129803,0.13220000000001164,0.14870000000155414,0.16530000000057044,0.18179999999847496,0.19910000000163564,0.21529999999984284,0.23259999999936554,0.24910000000090804,0.26559999999881256,0.28189999999813153,0.2995999999984633,0.3161000000000058,0.3319000000010419,0.3485000000000582,0.3660999999992782,0.38220000000001164,0.39870000000155414,0.41600000000107684,0.4320999999981723,0.448499999998603,0.46600000000034925,0.48189999999885913,0.4992999999994936,0.5152999999991152,0.5318999999981315,0.5486999999993714,0.5649999999986903,0.5816000000013446,0.5985000000000582,0.6150999999990745,0.6319000000003143,0.6480999999985215,0.6657999999988533,0.6814000000013039,0.6981999999989057,0.7148999999990338,0.7314000000005763,0.7491999999983818,0.7655999999988126,0.7812999999987369,0.7988000000004831,0.8145000000004075,0.8313000000016473,0.8479000000006636,0.8656000000009954,0.8810999999986961,0.8981999999996333,0.9147999999986496,0.9311999999990803,0.9477000000006228,0.9644999999982247,0.9808999999986554,0.9976999999998952,1.0144000000000233,1.0309000000015658,1.0476000000016938,1.0648000000001048,1.0807999999997264,1.0974999999998545,1.1147999999993772,1.1320999999988999,1.1474999999991269,1.1647000000011758,1.1807999999982712,1.1972999999998137,1.215199999998731,1.2308999999986554,1.2472999999990861,1.2651000000005297,1.2805999999982305,1.2972000000008848,1.314299999998184,1.3306000000011409,1.3472000000001572,1.3637999999991735,1.3803999999981897,1.3974999999991269,1.4138999999995576,1.4304000000011001,1.4471000000012282,1.4641000000010536,1.4802999999992608,1.4981000000007043,1.5138999999981024,1.5305999999982305,1.5469000000011874,1.5639000000010128,1.5802000000003318,1.5970000000015716,1.6137000000016997,1.6316999999980908,1.6473000000005413,1.663700000000972,1.6801000000014028,1.6968000000015309,1.7134000000005472,1.7298999999984517,1.7465999999985797,1.7633999999998196,1.7800999999999476,1.7965000000003783,1.8135000000002037,1.830500000000029,1.8464999999996508,1.863600000000588,1.880300000000716,1.897000000000844,1.9137999999984459,1.930000000000291,1.9464999999981956,1.9634000000005472,1.9795999999987544,1.9963999999999942,2.0133999999998196,2.0298000000002503,2.046699999998964,2.062999999998283,2.0793999999987136,2.096399999998539,2.1127999999989697,2.1296000000002095,2.1464000000014494,2.1630000000004657,2.1792999999997846,2.1961999999984982,2.2128000000011525,2.229299999999057,2.245999999999185,2.2625999999982014,2.2792999999983294,2.2959000000009837,2.3126000000011118,2.3303999999989173,2.346000000001368,2.362600000000384,2.3791999999994005,2.396600000000035,2.412400000001071,2.429199999998673,2.445800000001327,2.462500000001455,2.4791000000004715,2.495599999998376,2.512299999998504,2.5300999999999476,2.5456000000012864,2.5622000000003027,2.5790999999990163,2.595499999999447,2.6124999999992724,2.628899999999703,2.6454999999987194,2.6622999999999593,2.6788000000015018,2.695400000000518,2.712100000000646,2.728800000000774,2.7453999999997905,2.7622000000010303,2.778699999998935,2.79569999999876,2.8126999999985856,2.828699999998207,2.8453000000008615,2.8620999999984633,2.878499999998894,2.895300000000134,2.9118000000016764,2.9284999999981665,2.9452999999994063,2.9622999999992317,2.9786999999996624,2.995100000000093,3.011800000000221,3.0282999999981257,3.0449999999982538,3.061699999998382,3.0786000000007334,3.0949000000000524,3.1118999999998778,3.1309000000001106,3.1454999999987194,3.1617000000005646,3.178199999998469,3.194999999999709,3.2115000000012515,3.228399999999965,3.2452999999986787,3.261500000000524,3.27809999999954,3.2946999999985565,3.3117999999994936,3.327900000000227,3.344600000000355,3.361300000000483,3.3791999999994005,3.3945999999996275,3.4112999999997555,3.4279999999998836,3.444899999998597,3.4619999999995343,3.477900000001682,3.4949999999989814,3.5112000000008265,3.5279000000009546,3.5446000000010827,3.561200000000099,3.5776000000005297,3.594600000000355,3.6111999999993714,3.627599999999802,3.6450000000004366,3.661000000000058,3.677800000001298,3.6942999999992026,3.7115000000012515,3.727599999998347,3.7443999999995867,3.7608000000000175,3.7775000000001455,3.7942000000002736,3.81079999999929,3.827399999998306,3.8440000000009604,3.8607999999985623,3.8774000000012165,3.8941999999988184,3.9108000000014727,3.927299999999377,3.944100000000617,3.9606999999996333,3.977599999998347,3.9940999999998894,4.01050000000032,4.02730000000156,4.044200000000274,4.060300000001007,4.077199999999721,4.094099999998434,4.111199999999371,4.1274000000012165,4.144499999998516,4.160299999999552,4.177700000000186,4.1938999999983935,4.210999999999331,4.226800000000367,4.244200000001001,4.260299999998097,4.277200000000448,4.2937999999994645,4.311200000000099,4.331600000001345,4.345099999998638,4.361400000001595,4.37840000000142,4.395000000000437,4.413000000000466,4.428800000001502,4.444899999998597,4.461699999999837,4.52560000000085,4.535700000000361,4.546500000000378,4.5613999999986845,4.578900000000431,4.595700000001671,4.612300000000687,4.6283000000003085,4.6458999999995285,4.66479999999865,4.678400000000693,4.695899999998801,4.709999999999127,4.726699999999255,4.743299999998271,4.760299999998097,4.77730000000156,4.793000000001484,4.809799999999086,4.826700000001438,4.843199999999342,4.85989999999947,4.877300000000105,4.892899999998917,4.910899999998946,4.926400000000285,4.942500000001019,4.95969999999943,4.977100000000064,4.992799999999988,5.009300000001531,5.02809999999954,5.042600000000675,5.0613999999986845,5.076099999998405,5.094199999999546,5.111499999999069,5.1283000000003085,5.144899999999325,5.162100000001374,5.177800000001298,5.1945999999989,5.210899999998219,5.227399999999761,5.242600000001403,5.260699999998906,5.280699999999342,5.295399999999063,5.311699999998382,5.327199999999721,5.344499999999243,5.3620000000009895,5.3774000000012165,5.3945999999996275,5.410599999999249,5.4275999999990745,5.444400000000314,5.460500000001048,5.477500000000873,5.494099999999889,5.510900000001129,5.527600000001257,5.544999999998254,5.560699999998178,5.577300000000832,5.594700000001467,5.610499999998865,5.627199999998993,5.644499999998516,5.660800000001473,5.677299999999377,5.693999999999505,5.710399999999936,5.727699999999459,5.744599999998172,5.7608000000000175,5.776799999999639,5.793600000000879,5.810199999999895,5.826399999998102,5.843300000000454,5.860199999999168,5.877300000000105,5.894000000000233,5.910499999998137,5.926800000001094,5.944100000000617,5.960500000001048,5.9769000000014785,5.996200000001409,6.009699999998702,6.026900000000751,6.043600000000879,6.060699999998178,6.076600000000326,6.091799999998329,6.108100000001286,6.124700000000303,6.141299999999319,6.159700000000157,6.178100000000995,6.194700000000012,6.208099999999831,6.226299999998446,6.243399999999383,6.259799999999814,6.276000000001659,6.292699999998149,6.309600000000501,6.327300000000832,6.342400000001362,6.359199999998964,6.377100000001519,6.3928000000014435,6.408800000001065,6.426599999998871,6.443400000000111,6.459100000000035,6.476200000000972,6.492699999998877,6.509099999999307,6.526000000001659,6.542699999998149,6.5591999999996915,6.57589999999982,6.592599999999948,6.609499999998661,6.626199999998789,6.642499999998108,6.6591000000007625,6.675699999999779,6.692599999998492,6.709100000000035,6.726299999998446,6.743099999999686,6.7576999999982945,6.774099999998725,6.791399999998248,6.8078999999997905,6.8237999999983,6.840199999998731,6.856999999999971,6.873800000001211,6.890800000001036,6.907599999998638,6.924699999999575,6.940699999999197,6.956900000001042,6.974200000000565,6.990799999999581,7.007000000001426,7.023499999999331,7.040000000000873,7.056700000001001,7.074199999999109,7.091300000000047,7.106800000001385,7.123500000001513,7.139800000000832,7.156599999998434,7.173399999999674,7.190699999999197,7.206600000001345,7.223300000001473,7.239900000000489,7.2570999999989,7.273300000000745,7.28979999999865,7.306400000001304,7.3233000000000175,7.340799999998126,7.356400000000576,7.3729999999995925,7.390299999999115,7.406999999999243,7.423999999999069,7.439699999998993,7.456500000000233,7.473399999998946,7.490399999998772,7.5067999999992026,7.5230999999985215,7.540600000000268,7.556899999999587,7.5737999999983,7.590700000000652,7.607299999999668,7.623599999998987,7.639400000000023,7.657200000001467,7.672800000000279,7.690699999999197,7.709999999999127,7.725299999998242,7.74199999999837,7.758999999998196,7.775000000001455,7.791700000001583,7.8078999999997905,7.8245999999999185,7.842899999999645,7.8584999999984575,7.875899999999092,7.891299999999319,7.9078000000008615,7.924399999999878,7.941200000001118,7.957699999999022,7.974600000001374,7.9913999999989755,8.007799999999406,8.024199999999837,8.040600000000268,8.057600000000093,8.07419999999911,8.090700000000652,8.107599999999366,8.124400000000605,8.140500000001339,8.157500000001164,8.174200000001292,8.190599999998085,8.20720000000074,8.22439999999915,8.239300000001094,8.256000000001222,8.272600000000239,8.28859999999986,8.305899999999383,8.322100000001228,8.33929999999964,8.355500000001484,8.371999999999389,8.388599999998405,8.405500000000757,8.421800000000076,8.438799999999901,8.455399999998917,8.471600000000763,8.48949999999968,8.504899999999907,8.523300000000745,8.538799999998446,8.555799999998271,8.572400000000926,8.588800000001356,8.605100000000675,8.62159999999858,8.638599999998405,8.65480000000025,8.671800000000076,8.688200000000506,8.704999999998108,8.721399999998539,8.738000000001193,8.755099999998492,8.771300000000338,8.788000000000466,8.80489999999918,8.822400000000926,8.838800000001356,8.854599999998754,8.871399999999994,8.887900000001537,8.90480000000025,8.921500000000378,8.937600000001112,8.955300000001444,8.97360000000117,8.988000000001193,9.004700000001321,9.021099999998114,9.037700000000768,9.054599999999482,9.070999999999913,9.087500000001455,9.104200000001583,9.120999999999185,9.137599999998201,9.154200000000856,9.17160000000149,9.1875,9.205200000000332,9.221099999998842,9.238199999999779,9.2541999999994,9.270700000000943,9.287599999999657,9.306700000001001,9.322100000001228,9.33770000000004,9.35740000000078,9.372599999998783,9.388800000000629,9.405900000001566,9.422500000000582,9.438900000001013,9.454999999998108,9.472300000001269,9.488900000000285,9.505700000001525,9.522300000000541,9.539099999998143,9.555199999998877,9.572299999999814,9.588700000000244,9.605500000001484,9.621899999998277,9.638599999998405,9.65559999999823,9.672299999998359,9.693599999998696,9.705699999998615,9.722999999998137,9.738600000000588,9.755300000000716,9.772799999998824,9.790400000001682,9.805000000000291,9.821599999999307,9.83889999999883,9.855800000001182,9.872999999999593,9.888100000000179,9.90629999999868,9.922500000000582,9.938300000001618,9.954799999999523,9.973099999999192,9.98800000000125,10.004700000001264,10.021300000000338,10.038199999999108,10.055899999999383,10.071299999999667,10.08810000000085,10.105199999998149,10.12110000000024,10.139500000001078,10.154900000001362,10.171200000000738,10.187799999999697,10.204600000000994,10.220900000000256,10.237700000001553,10.254700000001264,10.271099999998114,10.28979999999865,10.305499999998517,10.320899999998801,10.337699999999984,10.354400000000226,10.370800000000543,10.387800000000482,10.404999999998836,10.42280000000028,10.438799999999844,10.456200000000536,10.470799999999201,10.487499999999216,10.504000000000815,10.520700000000943,10.53789999999941,10.554100000001199,10.570400000000575,10.587899999998626,10.604100000000528,10.620500000000845,10.637699999999313,10.654500000000496,10.671299999998098,10.688099999999395,10.704499999999825,10.720900000000256,10.737499999999216,10.754300000000512,10.770799999998417,10.788199999999108,10.804100000001199,10.820599999999104,10.837299999999232,10.85399999999936,10.87039999999979,10.887399999999616,10.903800000000047,10.920300000001646,10.937300000001358,10.953699999998207,10.970399999998335,10.987300000000687,11.005000000000962,11.020300000000077,11.03689999999915,11.054100000001199,11.070800000001327,11.087699999999984,11.10499999999962,11.120500000000845,11.136500000000524,11.154399999999441,11.169999999998254,11.18699999999808,11.203600000000733,11.220099999998638,11.237099999998463,11.253700000001118,11.270700000000943,11.286400000000924,11.303400000000636,11.319999999999709,11.336299999999085,11.353899999998191,11.369999999999038,11.386600000001692,11.4027999999999,11.419600000001083,11.436600000000908,11.453000000001339,11.469700000001467,11.487600000000384,11.503300000000365,11.519499999998573,11.536400000000924,11.554100000001199,11.569500000001483,11.586200000001497,11.604299999999057,11.619500000000698,11.636399999999355,11.652900000000955,11.670099999999309,11.686099999998987,11.702799999999115,11.719499999999243,11.737600000000384,11.753799999998591,11.769000000000233,11.78580000000153,11.802199999998265,11.818899999998393,11.836800000000892,11.852500000000873,11.869099999999946,11.883900000000722,11.90230000000156,11.917199999999923,11.933899999999937,11.951000000000931,11.967000000000496,11.984499999998661,12.000599999999395,12.017499999998051,12.03399999999965,12.050800000000947,12.067200000001264,12.085899999998219,12.10060000000152,12.117300000001762,12.134099999999364,12.151900000000808,12.166900000000226,12.187099999999248,12.200199999999313,12.218899999999849,12.236400000001595,12.25340000000142,12.26880000000159,12.287400000001071,12.302999999999884,12.318999999999448,12.335899999998219,12.351999999998952,12.368800000000249,12.385299999998153,12.401900000000808,12.418499999999767,12.435099999998727,12.45170000000138,12.468300000000454,12.484400000001187,12.501499999998487,12.519400000000985,12.533500000001311,12.54989999999816,12.56639999999976,12.583399999999472,12.599800000000016,12.616099999999278,12.633300000001327,12.649900000000287,12.666199999999662,12.684399999998277,12.699899999999616,12.717499999998836,12.733700000000738,12.749599999999248,12.766700000000128,12.783800000001008,12.799999999999216,12.816699999999457,12.833099999999774,12.849900000001071,12.866300000001502,12.88300000000163,12.89939999999848,12.916799999999057,12.93289999999979,12.949799999998447,12.966199999998992,12.982899999999006,12.999599999999248,13.01659999999896,13.032699999999807,13.04950000000099,13.066200000001118,13.08299999999872,13.099500000000319,13.115900000000636,13.13300000000163,13.14939999999848,13.166300000000831,13.182199999999341,13.199599999999919,13.215799999998126,13.232599999999309,13.249199999998382,13.26589999999851,13.282699999999807,13.298900000001595,13.315999999998894,13.332800000000077,13.349300000001676,13.366200000000333,13.38239999999854,13.400300000001153,13.415700000001436,13.43240000000145,13.449300000000221,13.465599999999597,13.482599999999309,13.498999999999853,13.515500000001339,13.532200000001467,13.548900000001595,13.565599999998028,13.582200000000682,13.598999999998284,13.615799999999581,13.632699999998238,13.64939999999848,13.666099999998494,13.683099999998433,13.699100000001692,13.715799999998126,13.732299999999611,13.749100000000908,13.765599999998813,13.782200000001467,13.798399999999674,13.8153999999995,13.83229999999827,13.84839999999889,13.865000000001544,13.881499999999448,13.898399999998219,13.915400000001739,13.932499999999038,13.948899999999355,13.965199999998731,13.98189999999886,13.998500000001513,14.01540000000017,14.05449999999837,14.062399999998945,14.077099999998666,14.084299999998564,14.098999999998284,14.115300000001241,14.131900000000314,14.149499999999534,14.165700000001436,14.181599999999946,14.197899999999208,14.21480000000156,14.23119999999841,14.247899999998424,14.264800000000776,14.281100000000151,14.298200000001032,14.314699999998936,14.33109999999948,14.348099999999192,14.365000000001544,14.381099999998696,14.397799999998824,14.414400000001478,14.43240000000145,14.448899999999355,14.465100000001257,14.48119999999841,14.497599999998727,14.514800000000776,14.530999999998983,14.549100000000124,14.564299999998184,14.580699999998615,14.597499999999798,14.615999999998223,14.632600000000878,14.648799999999085,14.665600000000268,14.68240000000145,14.698199999998906,14.716100000001404,14.73070000000007,14.75,14.76540000000017,14.78240000000011,14.797200000000885,14.813900000001013,14.831999999998573,14.847799999999495,14.864300000001094,14.880399999998247,14.897300000000598,14.913700000000915,14.930400000001157,14.947000000000116,14.963800000001413,14.980500000001427,14.996999999999332,15.013800000000629,15.030299999998533,15.046999999998661,15.063399999999092,15.080500000000086,15.0972000000001,15.115000000001544,15.132000000001483,15.149000000001195,15.1654999999991,15.181899999999644,15.198199999998906,15.215599999999597,15.231999999999914,15.248199999998121,15.265500000001339,15.281899999998075,15.298099999999977,15.31520000000097,15.331699999998875,15.348600000001227,15.365099999999131,15.382000000001483,15.39819999999969,15.415099999998347,15.432000000000698,15.4487999999983,15.464899999999034,15.481700000000217,15.500599999999395,15.515200000001641,15.53570000000036,15.547999999998922,15.56520000000097,15.58179999999993,15.59820000000036,15.614799999999434,15.631199999999751,15.648099999998522,15.66479999999865,15.68119999999908,15.699700000001087,15.715400000000955,15.731500000001688,15.747999999999593,15.764800000000776,15.780999999998983,15.79780000000028,15.814299999998184,15.830999999998312,15.847499999999798,15.864300000001094,15.881099999998696,15.897600000000295,15.914400000001478,15.931300000000249,15.947700000000566,15.964499999998168,15.98070000000007,15.997599999998727,16.01520000000164,16.03120000000132,16.047699999999224]",16.1097,,16.1097,16.1097,"[0,-0.6]",,16.1097,4.5237,16.1097,"[0.5,0.7]",11.586,1.0158,10.5702,4.5237,Acepta,0,0,0,0,0,1,0,25,Train,Otro,5,3,25,10,,,,,,,,,,,,,,,,,,,,,,,,,,,
,,,,,,,,,,,,,26686044,2021-04-21_12h54.07.430,DictadorBinary,2021.1.4,Linux armv7l,60.07449237,0.833333333,-0.814938753,1,0,0,partition_image,Otro,"[0.8333333333333334,0.8333333333333334,0.8333333333333334,0.8333333333333334,0.8333333333333334,0.8333333333333334,0.8333333333333334,0.8333333333333334,0.8333333333333334,0.8333333333333334,0.8333333333333334,0.8333333333333334,0.8333333333333334,0.8333333333333334,0.8333333333333334,0.8333333333333334,0.8333333333333334,0.8333333333333334,0.8333333333333334,0.8333333333333334,0.8333333333333334,0.8333333333333334,0.8333333333333334,0.8333333333333334,0.8333333333333334,0.8333333333333334,0.8333333333333334,0.8333333333333334,0.8333333333333334,0.8333333333333334,0.8333333333333334,0.8333333333333334,0.8333333333333334,0.8333333333333334,0.8333333333333334,0.8333333333333334,0.8333333333333334,0.8333333333333334,0.8333333333333334,0.8333333333333334,0.8333333333333334,0.8333333333333334,0.8333333333333334,0.8333333333333334,0.8333333333333334,0.8333333333333334,0.8333333333333334,0.8333333333333334,0.8333333333333334,0.8333333333333334,0.8333333333333334,0.8333333333333334,0.8333333333333334,0.8333333333333334,0.8333333333333334,0.8333333333333334,0.8333333333333334,0.8333333333333334,0.8333333333333334,0.8333333333333334,0.8333333333333334,0.8333333333333334,0.8333333333333334,0.8333333333333334,0.8333333333333334,0.8333333333333334,0.8333333333333334,0.8333333333333334,0.8333333333333334,0.8333333333333334,0.8333333333333334,0.8333333333333334,0.8333333333333334,0.8333333333333334,0.8333333333333334,0.8333333333333334,0.8333333333333334,0.8333333333333334,0.8333333333333334,0.8333333333333334,0.8333333333333334,0.8333333333333334,0.8333333333333334,0.8333333333333334,0.8333333333333334,0.8333333333333334,0.8333333333333334,0.8333333333333334,0,0,0.014814843071831597,0.029629686143663195,0.03888888888888889,0.06111111111111111,0.08333333333333333,0.10185190836588541,0.11296301947699652,0.12037039862738716,0.12777777777777777,0.13333333333333333,0.1388888888888889,0.14629635281032985,0.1518519083658854,0.15925928751627605,0.16481484307183158,0.16851857503255208,0.1759259541829427,0.18333333333333332,0.19259262084960938,0.19814817640516494,0.20555555555555555,0.20925928751627604,0.2148148430718316,0.22037039862738717,0.22407413058810763,0.23148150973849826,0.2388888888888889,0.24444444444444444,0.25,0.2537037319607205,0.259259287516276,0.2648148430718316,0.27037039862738715,0.2777777777777778,0.2907407972547743,0.3,0.309259287516276,0.31666666666666665,0.32407413058810763,0.3333333333333333,0.3407407972547743,0.3518519083658854,0.3611111111111111,0.37222222222222223,0.3796296861436632,0.3870370652940538,0.3907407972547743,0.3981481764051649,0.40555555555555556,0.41296301947699654,0.4203703986273872,0.42777777777777776,0.4370371500651042,0.4444444444444444,0.45,0.457407463921441,0.4666666666666667,0.47407413058810766,0.48148159450954864,0.4907407972547743,0.5,0.5055555555555555,0.514814927842882,0.5222222222222223]","[-0.8149387525475543,-0.8149387525475543,-0.8149387525475543,-0.8149387525475543,-0.8149387525475543,-0.8149387525475543,-0.8149387525475543,-0.8149387525475543,-0.8149387525475543,-0.8149387525475543,-0.8149387525475543,-0.8149387525475543,-0.8149387525475543,-0.8149387525475543,-0.8149387525475543,-0.8149387525475543,-0.8149387525475543,-0.8149387525475543,-0.8149387525475543,-0.8149387525475543,-0.8149387525475543,-0.8149387525475543,-0.8149387525475543,-0.8149387525475543,-0.8149387525475543,-0.8149387525475543,-0.8149387525475543,-0.8149387525475543,-0.8149387525475543,-0.8149387525475543,-0.8149387525475543,-0.8149387525475543,-0.8149387525475543,-0.8149387525475543,-0.8149387525475543,-0.8149387525475543,-0.8149387525475543,-0.8149387525475543,-0.8149387525475543,-0.8149387525475543,-0.8149387525475543,-0.8149387525475543,-0.8149387525475543,-0.8149387525475543,-0.8149387525475543,-0.8149387525475543,-0.8149387525475543,-0.8149387525475543,-0.8149387525475543,-0.8149387525475543,-0.8149387525475543,-0.8149387525475543,-0.8149387525475543,-0.8149387525475543,-0.8149387525475543,-0.8149387525475543,-0.8149387525475543,-0.8149387525475543,-0.8149387525475543,-0.8149387525475543,-0.8149387525475543,-0.8149387525475543,-0.8149387525475543,-0.8149387525475543,-0.8149387525475543,-0.8149387525475543,-0.8149387525475543,-0.8149387525475543,-0.8149387525475543,-0.8149387525475543,-0.8149387525475543,-0.8149387525475543,-0.8149387525475543,-0.8149387525475543,-0.8149387525475543,-0.8149387525475543,-0.8149387525475543,-0.8149387525475543,-0.8149387525475543,-0.8149387525475543,-0.8149387525475543,-0.8149387525475543,-0.8149387525475543,-0.8149387525475543,-0.8149387525475543,-0.8149387525475543,-0.8149387525475543,-0.8149387525475543,-0.6142698562264841,-0.6142698562264841,-0.5964325869761183,-0.5819397993311036,-0.5730212157386602,-0.5473802241194607,-0.5183946488294314,-0.4882943143812709,-0.46042370238033026,-0.4336678495375209,-0.40691199669471156,-0.38350062545725333,-0.3489409481801317,-0.31549613212662,-0.28539579767845946,-0.25863994483565006,-0.23522857359819188,-0.21739130434782608,-0.19509479433397783,-0.16945380271477842,-0.14269794987196907,-0.1159420970291597,-0.0903010033444816,-0.06354515050167224,-0.041248640487824,-0.017837269250365804,0.007803722368833612,0.03232995482990175,0.05462646484375,0.07469335447585702,0.0903010033444816,0.10702341137123746,0.12597543977973452,0.14492751922097094,0.16499440885307798,0.18729096989966554,0.20958747991351379,0.23076923076923078,0.2508361204013378,0.26755852842809363,0.2820512650403689,0.29877367306712477,0.31661089128475123,0.3366777809168583,0.35451505016722407,0.37012259697037,0.38461538461538464,0.3968784498131793,0.4080267558528428,0.41917501085976694,0.4325529372811716,0.4459308637025763,0.4604236003148516,0.47380152673625625,0.487179453157661,0.49944256938819503,0.5105908243951192,0.5217391304347826,0.5328873854417068,0.5440356404486308,0.5551839464882943,0.5663322014952185,0.5774804820185122,0.5886287625418061,0.5997770175487301,0.6098104623647836]","[1,1,1,1,1,0,0,0,0,0,0,0,0,0,0,0,0,0,0,0,0,0,0,0,0,0,0,0,0,0,0,0,0,0,0,0,0,0,0,0,0,0,0,0,0,0,0,0,0,0,0,0,0,0,0,0,0,0,0,0,0,0,0,0,0,0,0,0,0,0,0,0,0,0,0,0,0,0,0,0,0,0,0,0,0,0,0,0,1,1,1,1,1,1,1,1,1,1,1,1,1,1,1,1,1,1,1,1,1,1,1,1,1,1,1,1,1,1,1,1,1,1,1,1,1,1,1,1,1,1,1,1,1,1,1,1,1,1,1,1,1,1,1,1,1,1,1,1,1,1,1,1,1,1]","[0,0,0,0,0,0,0,0,0,0,0,0,0,0,0,0,0,0,0,0,0,0,0,0,0,0,0,0,0,0,0,0,0,0,0,0,0,0,0,0,0,0,0,0,0,0,0,0,0,0,0,0,0,0,0,0,0,0,0,0,0,0,0,0,0,0,0,0,0,0,0,0,0,0,0,0,0,0,0,0,0,0,0,0,0,0,0,0,0,0,0,0,0,0,0,0,0,0,0,0,0,0,0,0,0,0,0,0,0,0,0,0,0,0,0,0,0,0,0,0,0,0,0,0,0,0,0,0,0,0,0,0,0,0,0,0,0,0,0,0,0,0,0,0,0,0,0,0,0,0,0,0,0,0]","[0,0,0,0,0,0,0,0,0,0,0,0,0,0,0,0,0,0,0,0,0,0,0,0,0,0,0,0,0,0,0,0,0,0,0,0,0,0,0,0,0,0,0,0,0,0,0,0,0,0,0,0,0,0,0,0,0,0,0,0,0,0,0,0,0,0,0,0,0,0,0,0,0,0,0,0,0,0,0,0,0,0,0,0,0,0,0,0,0,0,0,0,0,0,0,0,0,0,0,0,0,0,0,0,0,0,0,0,0,0,0,0,0,0,0,0,0,0,0,0,0,0,0,0,0,0,0,0,0,0,0,0,0,0,0,0,0,0,0,0,0,0,0,0,0,0,0,0,0,0,0,0,0,0]","[0.00009999999747378752,0.005699999997943905,0.017899999998917338,0.03169999999954598,0.048899999998013755,0.06539999999949941,0.08280000000007703,0.09809999999919228,0.11560000000093851,0.13260000000087757,0.14809999999852153,0.16549999999909915,0.18289999999979045,0.19789999999920838,0.21500000000020236,0.2317999999978042,0.2485999999989872,0.26540000000017017,0.28150000000101727,0.299299999998766,0.3149999999986335,0.33169999999887523,0.34779999999949496,0.36509999999913134,0.38139999999839347,0.3989999999976135,0.41569999999774154,0.4323000000003958,0.44879999999830034,0.46459999999933643,0.4815999999991618,0.4975999999987266,0.5151999999980603,0.5313999999998487,0.5489999999990687,0.5648000000001048,0.5822000000006824,0.597799999999495,0.6146999999982654,0.6311999999997511,0.6473999999979583,0.6644999999989523,0.681399999997609,0.6974999999984561,0.7147999999978651,0.7309999999997672,0.7488999999986845,0.7646999999997206,0.7811000000001513,0.7976999999992245,0.8145999999978812,0.8309000000008382,0.8472999999976878,0.8649999999979627,0.882099999998843,0.8973999999979583,0.9141999999992549,0.9314999999987776,0.9482999999999606,0.964700000000505,0.9808999999987122,0.9974000000001979,1.013999999999271,1.030399999999588,1.047500000000582,1.0643999999992388,1.0817999999999302,1.0982000000003609,1.1142000000000394,1.1309999999976412,1.1471999999994296,1.1644999999989523,1.1810000000005516,1.1970000000001164,1.2137999999977183,1.2302999999993176,1.246899999998277,1.263999999999271,1.2809999999989827,1.2968999999974926,1.3135000000001469,1.3302999999977487,1.3466000000007057,1.363900000000342,1.381600000000617,1.396600000000035,1.4144999999989523,1.4311999999990803,1.4480999999978508,1.4648999999990338,1.5200999999979672,1.5355999999991923,1.5480999999999767,1.5652999999983308,1.5838999999978114,1.5985000000000582,1.614399999998568,1.6316999999980908,1.6484999999993875,1.6647999999986496,1.6823999999978696,1.6980000000002633,1.7145999999993364,1.7315999999991618,1.7481999999981213,1.7646999999997206,1.7809999999989827,1.798500000000729,1.814299999998184,1.8315000000002328,1.8489999999982842,1.8646999999982654,1.8826999999982377,1.8977999999988242,1.9144999999989523,1.931399999997609,1.947700000000566,1.965199999998731,1.9827000000004773,1.9982999999992899,2.0142999999989684,2.0311000000001513,2.0481999999974505,2.0645000000004075,2.083200000000943,2.0979000000006636,2.1149999999979627,2.1309999999976412,2.148300000000745,2.16430000000031,2.1815999999999462,2.197199999998759,2.214700000000505,2.230599999999015,2.2474999999976717,2.264100000000326,2.2809999999989827,2.298399999999674,2.31420000000071,2.3307999999997833,2.34769999999844,2.364900000000489,2.381199999999751,2.3989000000001397,2.415000000000873,2.4307999999982144,2.447499999998456,2.4637999999977183,2.480599999999015,2.4966999999996347,2.515799999997455,2.5305999999982305,2.5468000000001325,2.56420000000071]",2.6143,,2.6143,2.6143,"[0,-0.6]",,2.6143,1.5149,2.6143,"[0.5,0.7]",1.0994,0.1337,0.9657,1.5149,Acepta,0,0,1,1,1,1,6,19,Train,Otro,5,3,25,10,,,,,,,,,,,,,,,,,,,,,,,,,,,
,,,,,,,,,,,,,26686044,2021-04-21_12h54.07.430,DictadorBinary,2021.1.4,Linux armv7l,60.07449237,0.824074131,-0.801560826,1,0,0,partition_image,Otro,"[0.8240741305881076,0.8240741305881076,0.8240741305881076,0.8240741305881076,0.8240741305881076,0.8240741305881076,0.8240741305881076,0.8240741305881076,0.8240741305881076,0.8240741305881076,0.8240741305881076,0.8240741305881076,0.8240741305881076,0.8240741305881076,0.8240741305881076,0.8240741305881076,0.8240741305881076,0.8240741305881076,0.8240741305881076,0.8240741305881076,0.8240741305881076,0.8240741305881076,0.8240741305881076,0.8240741305881076,0.8240741305881076,0.8240741305881076,0.8240741305881076,0.8240741305881076,0.8240741305881076,0.8240741305881076,0.8240741305881076,0.8240741305881076,0.8240741305881076,0.8240741305881076,0.8240741305881076,0.8240741305881076,0.8240741305881076,0.8240741305881076,0.8240741305881076,0.8240741305881076,0.8240741305881076,0.8240741305881076,0.8240741305881076,0.8240741305881076,0.8240741305881076,0.8240741305881076,0.8240741305881076,0.8240741305881076,0.8240741305881076,0.8240741305881076,-0.057407379150390625,-0.057407379150390625,-0.057407379150390625,-0.05,-0.03888888888888889,-0.02962960137261285,-0.01481475830078125,-0.009259202745225695,0,0.009259287516276042,0.022222222222222223,0.029629686143663195,0.04074079725477431,0.05370373196072049,0.0648148430718316,0.0796296861436632,0.09259262084960937,0.10740746392144097,0.12037039862738716,0.1388888888888889,0.15555555555555556,0.1759259541829427,0.2,0.2259259541829427,0.25,0.27037039862738715,0.2870370652940538,0.30185190836588544,0.3148148430718316,0.33148150973849827,0.34814817640516493,0.3648148430718316,0.3796296861436632,0.3925926208496094,0.40555555555555556,0.4185185750325521,0.43518524169921874,0.44814826117621526,0.4592593722873264,0.4703704833984375,0.47592603895399305,0.48148159450954864]","[-0.8015608261261497,-0.8015608261261497,-0.8015608261261497,-0.8015608261261497,-0.8015608261261497,-0.8015608261261497,-0.8015608261261497,-0.8015608261261497,-0.8015608261261497,-0.8015608261261497,-0.8015608261261497,-0.8015608261261497,-0.8015608261261497,-0.8015608261261497,-0.8015608261261497,-0.8015608261261497,-0.8015608261261497,-0.8015608261261497,-0.8015608261261497,-0.8015608261261497,-0.8015608261261497,-0.8015608261261497,-0.8015608261261497,-0.8015608261261497,-0.8015608261261497,-0.8015608261261497,-0.8015608261261497,-0.8015608261261497,-0.8015608261261497,-0.8015608261261497,-0.8015608261261497,-0.8015608261261497,-0.8015608261261497,-0.8015608261261497,-0.8015608261261497,-0.8015608261261497,-0.8015608261261497,-0.8015608261261497,-0.8015608261261497,-0.8015608261261497,-0.8015608261261497,-0.8015608261261497,-0.8015608261261497,-0.8015608261261497,-0.8015608261261497,-0.8015608261261497,-0.8015608261261497,-0.8015608261261497,-0.8015608261261497,-0.8015608261261497,-0.6276477826478888,-0.6276477826478888,-0.6187290969899666,-0.6053511705685619,-0.5875140033836748,-0.5641026321462166,-0.5384615384615384,-0.5250836120401338,-0.5005574816445443,-0.47380162880173493,-0.4470457759589256,-0.41917506189250625,-0.3879598662207358,-0.35451505016722407,-0.3199554749555811,-0.2865106589020694,-0.2552954632302989,-0.22519512878213838,-0.19509479433397783,-0.16164997828046615,-0.1259755418452132,-0.08918624418635034,-0.04570798331678512,-0.0033444816053511705,0.037904056816994144,0.07915269730481814,0.12040133779264214,0.1616499272477268,0.20066889632107024,0.23968781436167433,0.27759197324414714,0.31326640967940006,0.34782608695652173,0.3801560417864235,0.40914156604371343,0.4414715719063545,0.4726867165453857,0.5016722408026756,0.5295429038363556,0.5540690852646843,0.5785953177257525,0.6020066889632107]","[1,1,1,1,1,1,0,0,0,0,0,0,0,0,0,0,0,0,0,0,0,0,0,0,0,0,0,0,0,0,0,0,0,0,0,0,0,0,0,0,0,0,0,0,0,0,0,0,0,0,1,1,1,1,1,1,1,1,1,1,1,1,1,1,1,1,1,1,1,1,1,1,1,1,1,1,1,1,1,1,1,1,1,1,1,1,1,1,1,1,1,1]","[0,0,0,0,0,0,0,0,0,0,0,0,0,0,0,0,0,0,0,0,0,0,0,0,0,0,0,0,0,0,0,0,0,0,0,0,0,0,0,0,0,0,0,0,0,0,0,0,0,0,0,0,0,0,0,0,0,0,0,0,0,0,0,0,0,0,0,0,0,0,0,0,0,0,0,0,0,0,0,0,0,0,0,0,0,0,0,0,0,0,0,0]","[0,0,0,0,0,0,0,0,0,0,0,0,0,0,0,0,0,0,0,0,0,0,0,0,0,0,0,0,0,0,0,0,0,0,0,0,0,0,0,0,0,0,0,0,0,0,0,0,0,0,0,0,0,0,0,0,0,0,0,0,0,0,0,0,0,0,0,0,0,0,0,0,0,0,0,0,0,0,0,0,0,0,0,0,0,0,0,0,0,0,0,0]","[0.00009999999747378752,0.005600000000356431,0.016799999997601844,0.048199999997450504,0.08269999999902211,0.08909999999741558,0.10210000000000719,0.11499999999796273,0.13099999999764123,0.1476000000002955,0.16460000000000719,0.1807999999982144,0.1986999999972454,0.21459999999933643,0.2314000000005194,0.2485999999989872,0.2644000000000233,0.28179999999701977,0.29859999999831643,0.3138999999974317,0.33059999999744605,0.3473999999987427,0.3645999999970968,0.38079999999899883,0.3977999999988242,0.4140999999982,0.4307999999982144,0.4473999999972875,0.46470000000050504,0.4812999999994645,0.4972999999990293,0.5138999999981024,0.530800000000454,0.5475999999980559,0.5637999999998442,0.580500000000086,0.5972000000001003,0.6137999999991735,0.6313999999983935,0.6476000000002955,0.6647999999986496,0.6802999999999884,0.6970999999975902,0.7135999999990759,0.7304000000003725,0.746999999999332,0.7635999999984051,0.7802999999985332,0.7969999999986612,0.8178999999982466,0.8310999999994806,0.8485000000000582,0.90629999999868,0.9261000000006447,0.9421000000002095,0.9552999999977487,0.9715999999971245,0.9831999999987033,0.9989999999998531,1.014999999999418,1.03129999999868,1.0478999999977532,1.0649999999986335,1.0816999999988752,1.0985000000000582,1.114900000000489,1.1313999999983935,1.1484999999993875,1.1648999999997045,1.181399999997609,1.1986999999972454,1.214700000000505,1.2334999999984007,1.2475999999987266,1.2644000000000233,1.2818999999980747,1.2979999999989218,1.315099999999802,1.3312000000005355,1.3482000000003609,1.3642999999973995,1.3812999999973385,1.399099999998782,1.4148999999997045,1.4310999999979117,1.4478999999992084,1.4645999999993364,1.4821999999985565,1.497799999997369,1.514499999997497,1.5305999999982305,1.5472999999983585]",1.5949,,1.5949,1.5949,"[0,-0.6]",,1.5949,0.896,1.5949,"[0.5,0.7]",0.6989,0.1665,0.5324,0.896,Acepta,0,0,2,2,2,1,13,12,Train,Otro,5,3,25,10,,,,,,,,,,,,,,,,,,,,,,,,,,,
,,,,,,,,,,,,,26686044,2021-04-21_12h54.07.430,DictadorBinary,2021.1.4,Linux armv7l,60.07449237,0.83703715,-0.778149455,1,0,0,partition_image,Otro,"[0.8370371500651042,0.8370371500651042,0.8370371500651042,0.8370371500651042,0.8370371500651042,0.8370371500651042,0.8370371500651042,0.8370371500651042,0.8370371500651042,0.8370371500651042,0.8370371500651042,0.8370371500651042,0.8370371500651042,0.8370371500651042,0.8370371500651042,0.8370371500651042,0.8370371500651042,0.8370371500651042,0.8370371500651042,0.8370371500651042,0.8370371500651042,0.8370371500651042,0.8370371500651042,0.8370371500651042,0.8370371500651042,0.8370371500651042,0.8370371500651042,0.8370371500651042,0.8370371500651042,0.8370371500651042,0.8370371500651042,0.8370371500651042,0.8370371500651042,0.8370371500651042,0.8370371500651042,0.8370371500651042,0.8370371500651042,0.8370371500651042,0.8370371500651042,0.8370371500651042,0.8370371500651042,0.8370371500651042,0.8370371500651042,0.8370371500651042,0.8370371500651042,0.8370371500651042,0.8370371500651042,0.8370371500651042,0.8370371500651042,0.8370371500651042,0.8370371500651042,0.8370371500651042,0.8370371500651042,0.8370371500651042,0.8370371500651042,0.8370371500651042,0.8370371500651042,0.8370371500651042,0.8370371500651042,0.8370371500651042,0.8370371500651042,0.8370371500651042,0.8370371500651042,0.8370371500651042,0.8370371500651042,-0.06481475830078125,-0.06481475830078125,-0.06481475830078125,-0.057407379150390625,-0.05370364718967014,-0.048148091634114584,-0.04629626803927951,-0.040740712483723955,-0.03703698052300347,-0.035185156928168405,-0.022222222222222223,-0.016666666666666666,-0.007407379150390625,-0.0018518235948350695,0.005555555555555556,0.012963019476996528,0.020370398627387154,0.027777777777777776,0.03888888888888889,0.04629635281032986,0.05370373196072049,0.059259287516276044,0.06666666666666667,0.07407413058810763,0.08333333333333333,0.09074079725477431,0.09814817640516493,0.10555555555555556,0.1111111111111111,0.11666666666666667,0.12222222222222222,0.1296296861436632,0.13703706529405382,0.14444444444444443,0.15370373196072049,0.16296301947699654,0.17037039862738715,0.18148150973849828,0.19259262084960938,0.2,0.20925928751627604,0.21666666666666667,0.2222222222222222,0.22777777777777777,0.23518524169921876,0.24259262084960936,0.24814817640516493,0.25,0.2518519083658854,0.2537037319607205,0.2537037319607205,0.25555555555555554,0.25555555555555554,0.257407463921441,0.259259287516276,0.2629630194769965,0.2685185750325521,0.2759259541829427,0.2814815097384983,0.2870370652940538,0.29444444444444445,0.30185190836588544,0.3129630194769965,0.32962968614366317,0.34444444444444444,0.36296301947699655,0.38148150973849826,0.3962963528103299,0.4111111111111111,0.4222222222222222,0.43518524169921874,0.44629635281032987,0.4592593722873264]","[-0.7781494548886915,-0.7781494548886915,-0.7781494548886915,-0.7781494548886915,-0.7781494548886915,-0.7781494548886915,-0.7781494548886915,-0.7781494548886915,-0.7781494548886915,-0.7781494548886915,-0.7781494548886915,-0.7781494548886915,-0.7781494548886915,-0.7781494548886915,-0.7781494548886915,-0.7781494548886915,-0.7781494548886915,-0.7781494548886915,-0.7781494548886915,-0.7781494548886915,-0.7781494548886915,-0.7781494548886915,-0.7781494548886915,-0.7781494548886915,-0.7781494548886915,-0.7781494548886915,-0.7781494548886915,-0.7781494548886915,-0.7781494548886915,-0.7781494548886915,-0.7781494548886915,-0.7781494548886915,-0.7781494548886915,-0.7781494548886915,-0.7781494548886915,-0.7781494548886915,-0.7781494548886915,-0.7781494548886915,-0.7781494548886915,-0.7781494548886915,-0.7781494548886915,-0.7781494548886915,-0.7781494548886915,-0.7781494548886915,-0.7781494548886915,-0.7781494548886915,-0.7781494548886915,-0.7781494548886915,-0.7781494548886915,-0.7781494548886915,-0.7781494548886915,-0.7781494548886915,-0.7781494548886915,-0.7781494548886915,-0.7781494548886915,-0.7781494548886915,-0.7781494548886915,-0.7781494548886915,-0.7781494548886915,-0.7781494548886915,-0.7781494548886915,-0.7781494548886915,-0.7781494548886915,-0.7781494548886915,-0.7781494548886915,-0.6187290969899666,-0.6187290969899666,-0.6187290969899666,-0.6042364114104306,-0.5986622073578596,-0.5863991421600648,-0.5808250401729724,-0.5618729096989966,-0.5496098445012019,-0.5429208812904995,-0.5072464448552466,-0.49498327759197325,-0.47380162880173493,-0.4626533227620715,-0.4437012943535744,-0.42474916387959866,-0.40691199669471156,-0.38461538461538464,-0.35785953177257523,-0.3311036789297659,-0.30546268731056647,-0.2842809364548495,-0.26198442644100123,-0.23634343482180184,-0.20958758197899247,-0.18283172913618312,-0.15607587629337374,-0.12932002345056437,-0.10367892976588629,-0.07915279937029682,-0.05574142813283863,-0.03233005689538043,-0.007803824434312291,0.014492685579535954,0.03567443643525293,0.05574132606735995,0.07692307692307693,0.09810472571331522,0.11928647656903218,0.14046822742474915,0.15830544564237561,0.17725752508361203,0.1939799331103679,0.20958747991351379,0.22519507774939904,0.23745819397993312,0.24972125917772783,0.25975470399378137,0.26755852842809363,0.27424749163879597,0.27759197324414714,0.2820512650403689,0.28762541806020064,0.29431438127090304,0.30434782608695654,0.31661089128475123,0.32998881770615596,0.34448160535117056,0.36008915215431647,0.3745819397993311,0.3890746764116064,0.40579708443836227,0.4269787842613399,0.4503901554987981,0.4726867165453857,0.4938684163683633,0.5139353060004703,0.5317725752508361,0.5484949832775919,0.5629877198898673,0.5752508361204013,0.5886287625418061,0.6020066889632107]","[1,1,1,1,1,1,0,0,0,0,0,0,0,0,0,0,0,0,0,0,0,0,0,0,0,0,0,0,0,0,0,0,0,0,0,0,0,0,0,0,0,0,0,0,0,0,0,0,0,0,0,0,0,0,0,0,0,0,0,0,0,0,0,0,0,1,1,1,1,1,1,1,1,1,1,1,1,1,1,1,1,1,1,1,1,1,1,1,1,1,1,1,1,1,1,1,1,1,1,1,1,1,1,1,1,1,1,1,1,1,1,1,1,1,1,1,1,1,1,1,1,1,1,1,1,1,1,1,1,1,1,1,1,1,1,1,1,1]","[0,0,0,0,0,0,0,0,0,0,0,0,0,0,0,0,0,0,0,0,0,0,0,0,0,0,0,0,0,0,0,0,0,0,0,0,0,0,0,0,0,0,0,0,0,0,0,0,0,0,0,0,0,0,0,0,0,0,0,0,0,0,0,0,0,0,0,0,0,0,0,0,0,0,0,0,0,0,0,0,0,0,0,0,0,0,0,0,0,0,0,0,0,0,0,0,0,0,0,0,0,0,0,0,0,0,0,0,0,0,0,0,0,0,0,0,0,0,0,0,0,0,0,0,0,0,0,0,0,0,0,0,0,0,0,0,0,0]","[0,0,0,0,0,0,0,0,0,0,0,0,0,0,0,0,0,0,0,0,0,0,0,0,0,0,0,0,0,0,0,0,0,0,0,0,0,0,0,0,0,0,0,0,0,0,0,0,0,0,0,0,0,0,0,0,0,0,0,0,0,0,0,0,0,0,0,0,0,0,0,0,0,0,0,0,0,0,0,0,0,0,0,0,0,0,0,0,0,0,0,0,0,0,0,0,0,0,0,0,0,0,0,0,0,0,0,0,0,0,0,0,0,0,0,0,0,0,0,0,0,0,0,0,0,0,0,0,0,0,0,0,0,0,0,0,0,0]","[0.00010000000116860974,0.005900000000167438,0.011800000000334876,0.02709999999945012,0.04409999999916181,0.061099999999100874,0.07770000000175514,0.09470000000146683,0.1103000000002794,0.12689999999935253,0.14380000000170412,0.16070000000047457,0.1771999999983791,0.19380000000103337,0.2102999999989379,0.2273999999998182,0.24390000000130385,0.26029999999815345,0.2767999999997528,0.2940999999991618,0.3102000000000089,0.3269000000000233,0.34370000000131995,0.3620999999984633,0.3767999999981839,0.3938000000017041,0.4099999999999113,0.42659999999898446,0.44350000000133605,0.4601000000002955,0.4765999999982,0.4933999999994967,0.5099000000009823,0.5266999999985842,0.5433999999987122,0.5599000000003116,0.576499999999271,0.5931999999993991,0.6100000000005821,0.6264999999984866,0.6432999999997833,0.6598000000013826,0.6764000000003421,0.6932000000016387,0.7095999999983746,0.7262999999985027,0.7432000000008543,0.7608000000000743,0.7763000000014131,0.7936000000009358,0.8094999999994457,0.8261999999995737,0.8427999999985332,0.8594000000011874,0.8761000000014292,0.8938000000017041,0.9094000000005167,0.9261999999981185,0.9436999999998648,0.9605999999986352,0.9759999999988054,0.9935000000005516,1.0093000000015877,1.0259000000006608,1.0426999999982627,1.0603999999985376,1.077000000001192,1.1437000000005355,1.1575999999987516,1.1695000000000277,1.1830999999984328,1.1970000000001164,1.2210999999988985,1.231400000000633,1.244599999998286,1.2776000000012573,1.28519999999844,1.2963999999993803,1.310200000000009,1.3267999999989684,1.3443999999981884,1.360899999999674,1.3774000000012734,1.3941999999988752,1.4107000000004746,1.427299999999434,1.4435999999986961,1.4606999999996901,1.4772999999986496,1.4940999999999462,1.5102999999981535,1.527200000000505,1.5436000000009358,1.5607999999994036,1.577000000001192,1.5934999999990964,1.6104999999989218,1.6284000000014203,1.6440000000002328,1.6598000000013826,1.6767000000000394,1.6938999999983935,1.7112999999990848,1.7262999999985027,1.743800000000249,1.7599000000009823,1.7766000000011104,1.7932000000000698,1.8100000000013665,1.8280999999988126,1.843600000000265,1.8614000000017086,1.8764999999984866,1.8934999999984257,1.9102999999996086,1.9285999999992782,1.9434000000001674,1.9602000000013504,1.9760999999998603,1.9942000000010012,2.0112000000009402,2.0260999999991895,2.04320000000007,2.0596000000006143,2.0769000000000233,2.092799999998533,2.109899999999527,2.125800000001732,2.143100000001141,2.161499999998398,2.1761000000006447,2.1936999999998648,2.2092000000012035,2.2265000000007262,2.2439999999988913,2.2593999999990615,2.27709999999945,2.2927999999993176]",2.3461,,2.3461,2.3461,"[0,-0.6]",,2.3461,1.1303,2.3461,"[0.5,0.7]",1.2158,0.2194,0.9964,1.1303,Acepta,0,0,3,3,3,1,19,6,Train,Otro,5,3,25,10,,,,,,,,,,,,,,,,,,,,,,,,,,,
,,,,,,,,,,,,,26686044,2021-04-21_12h54.07.430,DictadorBinary,2021.1.4,Linux armv7l,60.07449237,0.801851908,-0.813823993,1,0,0,partition_image,Otro,"[0.8018519083658854,0.8018519083658854,0.8018519083658854,0.8018519083658854,0.8018519083658854,0.8018519083658854,0.8018519083658854,0.8018519083658854,0.8018519083658854,0.8018519083658854,0.8018519083658854,0.8018519083658854,0.8018519083658854,0.8018519083658854,0.8018519083658854,0.8018519083658854,0.8018519083658854,0.8018519083658854,0.8018519083658854,0.8018519083658854,0.8018519083658854,0.8018519083658854,0.8018519083658854,0.8018519083658854,0.8018519083658854,0.8018519083658854,0.8018519083658854,0.8018519083658854,0.8018519083658854,0.8018519083658854,0.8018519083658854,0.8018519083658854,0.8018519083658854,0.8018519083658854,0.8018519083658854,0.8018519083658854,0.8018519083658854,0.8018519083658854,0.8018519083658854,0.8018519083658854,0.8018519083658854,0.8018519083658854,0.8018519083658854,0.10185190836588541,0.10185190836588541,0.05555555555555555,0.05370373196072049,0.042592620849609374,0.024074130588107638,0,-0.04259253607855903,-0.05,-0.057407379150390625,-0.07037031385633681,-0.08148142496744791,-0.09814809163411459,-0.11666666666666667,-0.1351851569281684,-0.14814809163411458,-0.1629629347059462,-0.1740740458170573,-0.18703698052300347,-0.20370364718967013,-0.2222222222222222,-0.2388888888888889,-0.25555555555555554,-0.2722222222222222,-0.29074071248372396,-0.3074073791503906,-0.3240740458170573,-0.3333333333333333,-0.34074071248372395,-0.3462962680392795,-0.35,-0.35555555555555557,-0.3611111111111111,-0.36851849026150174,-0.3759259117974175,-0.38333333333333336,-0.39074071248372394,-0.39444444444444443,-0.4,-0.4037036895751953,-0.4074073791503906]","[-0.8138239933894231,-0.8138239933894231,-0.8138239933894231,-0.8138239933894231,-0.8138239933894231,-0.8138239933894231,-0.8138239933894231,-0.8138239933894231,-0.8138239933894231,-0.8138239933894231,-0.8138239933894231,-0.8138239933894231,-0.8138239933894231,-0.8138239933894231,-0.8138239933894231,-0.8138239933894231,-0.8138239933894231,-0.8138239933894231,-0.8138239933894231,-0.8138239933894231,-0.8138239933894231,-0.8138239933894231,-0.8138239933894231,-0.8138239933894231,-0.8138239933894231,-0.8138239933894231,-0.8138239933894231,-0.8138239933894231,-0.8138239933894231,-0.8138239933894231,-0.8138239933894231,-0.8138239933894231,-0.8138239933894231,-0.8138239933894231,-0.8138239933894231,-0.8138239933894231,-0.8138239933894231,-0.8138239933894231,-0.8138239933894231,-0.8138239933894231,-0.8138239933894231,-0.8138239933894231,-0.8138239933894231,-0.6332218846349812,-0.6332218846349812,-0.609810513397523,-0.6075808930157818,-0.5986622073578596,-0.5819397993311036,-0.5540691873301631,-0.47603124918347617,-0.45596435955136916,-0.4370123311428721,-0.4013377926421405,-0.3723523194175899,-0.33444816053511706,-0.2909698996655518,-0.24860650001959658,-0.20847272075538253,-0.1705685618729097,-0.13712374581939799,-0.10144930938414506,-0.0590859097381898,-0.015607648868624582,0.026755852842809364,0.07023411371237458,0.11036789297658862,0.1505016722408027,0.18729096989966554,0.22073578595317725,0.24860644898685724,0.27424749163879597,0.30211815467247594,0.3311036789297659,0.362318823568797,0.39464882943143814,0.4325529372811716,0.46934223494003446,0.5027870509935461,0.5328873854417068,0.5574135668700355,0.5785953177257525,0.5975473716506192,0.6131549439701348]","[1,1,1,1,1,0,0,0,0,0,0,0,0,0,0,0,0,0,0,0,0,0,0,0,0,0,0,0,0,0,0,0,0,0,0,0,0,0,0,0,0,0,0,1,1,1,1,1,1,1,1,1,1,1,1,1,1,1,1,1,1,1,1,1,1,1,1,1,1,1,1,1,1,1,1,1,1,1,1,1,1,1,1,1]","[0,0,0,0,0,0,0,0,0,0,0,0,0,0,0,0,0,0,0,0,0,0,0,0,0,0,0,0,0,0,0,0,0,0,0,0,0,0,0,0,0,0,0,0,0,0,0,0,0,0,0,0,0,0,0,0,0,0,0,0,0,0,0,0,0,0,0,0,0,0,0,0,0,0,0,0,0,0,0,0,0,0,0,0]","[0,0,0,0,0,0,0,0,0,0,0,0,0,0,0,0,0,0,0,0,0,0,0,0,0,0,0,0,0,0,0,0,0,0,0,0,0,0,0,0,0,0,0,0,0,0,0,0,0,0,0,0,0,0,0,0,0,0,0,0,0,0,0,0,0,0,0,0,0,0,0,0,0,0,0,0,0,0,0,0,0,0,0,0]","[0.00009999999736010068,0.005999999997527539,0.01759999999910633,0.033599999998784824,0.05109999999694992,0.06819999999783022,0.08439999999961856,0.10069999999899437,0.1171999999968989,0.13409999999925049,0.1502999999974577,0.16699999999758575,0.18389999999993734,0.20030000000036807,0.2169999999968013,0.23430000000001883,0.25,0.2674999999980514,0.28369999999995343,0.3001000000002705,0.31710000000020955,0.33349999999694546,0.3497999999999024,0.3669999999983702,0.3845999999974765,0.39999999999776037,0.41679999999894335,0.4333999999980165,0.4506999999975392,0.4669999999968013,0.48319999999870333,0.4998999999988314,0.5167999999976018,0.5332999999990875,0.549799999996992,0.5666999999993436,0.5839999999988663,0.5998999999973762,0.6173999999991224,0.6327999999992926,0.6497999999992317,0.6665999999968335,0.6845999999968058,0.7000999999981445,0.716199999998878,0.7736999999978025,0.7859999999999445,0.8048999999991224,0.8230000000002633,0.8361000000004424,0.8681999999971595,0.8751999999985287,0.8858999999974344,0.9007999999993785,0.9179000000003725,0.934499999999332,0.9507999999985941,0.9675999999998908,0.9844999999985475,1.0010999999976207,1.017199999998354,1.0336999999999534,1.0509999999993624,1.0675999999984356,1.0842999999985636,1.100800000000163,1.117199999996899,1.1335999999973296,1.1507999999993785,1.167299999997283,1.1847999999990293,1.2006000000000654,1.2180999999982305,1.2351999999991108,1.2520999999978812,1.268199999998501,1.284299999999348,1.3003999999999678,1.3177999999969643,1.3340999999999212,1.350899999997523,1.367199999996899,1.3845999999974765,1.400599999997155]",1.4487,,1.4487,1.4487,"[0,-0.6]",,1.4487,,,,0.6844,0.152,0.5324,0.7643,Rechaza,0,0,4,4,4,1,25,0,Train,Otro,5,3,25,10,0.7643,1.4487,"[-0.5,0.7]",,,,,,,,,,,,,,,,,,,,,,,,
