Mouse_Instructions.x,Mouse_Instructions.y,Mouse_Instructions.leftButton,Mouse_Instructions.midButton,Mouse_Instructions.rightButton,Mouse_Instructions.clicked_name,instruccioness.thisRepN,instruccioness.thisTrialN,instruccioness.thisN,instruccioness.thisIndex,instruccioness.ran,Instrucciones,Texto,Cedula,date,expName,psychopyVersion,OS,frameRate,partition_mouse.x,partition_mouse.y,partition_mouse.leftButton,partition_mouse.midButton,partition_mouse.rightButton,partition_mouse.clicked_name,rolotro,tracking_2.x,tracking_2.y,tracking_2.leftButton,tracking_2.midButton,tracking_2.rightButton,tracking_2.time,tracking_2.stopped,tracking_2.startedR,tracking_2.stoppedR,start_region_2.stopped,start_region_2.pos,Question_2.started,Question_2.stopped,O1.startedR,O1.stoppedR,O1_choiceR.pos,Total_Time,Resp_Time,Mov_Time,Time_to_start,Choice,liftedFinger,Trainingg.thisRepN,Trainingg.thisTrialN,Trainingg.thisN,Trainingg.thisIndex,Trainingg.ran,Ud,Otro,Type,Rol_otro,Otro_transf,Multiplicador,Ud_manos,fichas_base,fin_entrenamiento_mouse.x,fin_entrenamiento_mouse.y,fin_entrenamiento_mouse.leftButton,fin_entrenamiento_mouse.midButton,fin_entrenamiento_mouse.rightButton,fin_entrenamiento_mouse.clicked_name,mouse2.x,mouse2.y,mouse2.leftButton,mouse2.midButton,mouse2.rightButton,mouse2.clicked_name,trials.thisRepN,trials.thisTrialN,trials.thisN,trials.thisIndex,trials.ran,trials_2.thisRepN,trials_2.thisTrialN,trials_2.thisN,trials_2.thisIndex,trials_2.ran,TextoR,Pregunta
0.833333167,-0.801943775,1,0,0,next_button,0,0,0,0,1,1,"Imagine que usted y otra persona reciben cada uno 10 fichas. Cada una vale $3.000 pesos. 

Oprima la flecha para continuar.",15434288,2021-04-21_09h59.00.508,DictadorBinary,2021.1.4,Linux armv7l,60.07449237,,,,,,,,,,,,,,,,,,,,,,,,,,,,,,,,,,,,,,,,,,,,,,,,,,,,,,,,,,,,,,,,,,
0.833333167,-0.81095343,1,0,0,next_button,0,1,1,1,1,2,"La otra persona le puede transferir a usted de 0 a 10 fichas. Esas fichas se triplican una vez se transfieren a usted.

Oprima la flecha para continuar",15434288,2021-04-21_09h59.00.508,DictadorBinary,2021.1.4,Linux armv7l,60.07449237,,,,,,,,,,,,,,,,,,,,,,,,,,,,,,,,,,,,,,,,,,,,,,,,,,,,,,,,,,,,,,,,,,
0.816666584,-0.831547124,1,0,0,next_button,0,2,2,2,1,3,"Por ejemplo, si la otra persona le transfiere 2 fichas, se convierten en 6 fichas (2x3). Así, usted tendría en sus manos 16 fichas en total.

Oprima la flecha para continuar",15434288,2021-04-21_09h59.00.508,DictadorBinary,2021.1.4,Linux armv7l,60.07449237,,,,,,,,,,,,,,,,,,,,,,,,,,,,,,,,,,,,,,,,,,,,,,,,,,,,,,,,,,,,,,,,,,
0.809259282,-0.826398701,1,0,0,next_button,0,3,3,3,1,4,"Su tarea es dividir las fichas que quedan en sus manos entre los dos.

Oprima la flecha para continuar",15434288,2021-04-21_09h59.00.508,DictadorBinary,2021.1.4,Linux armv7l,60.07449237,,,,,,,,,,,,,,,,,,,,,,,,,,,,,,,,,,,,,,,,,,,,,,,,,,,,,,,,,,,,,,,,,,
0.814814852,-0.834121336,1,0,0,next_button,0,4,4,4,1,5,"Ninguno sabe el nombre del otro. 

Oprima la flecha para continuar.",15434288,2021-04-21_09h59.00.508,DictadorBinary,2021.1.4,Linux armv7l,60.07449237,,,,,,,,,,,,,,,,,,,,,,,,,,,,,,,,,,,,,,,,,,,,,,,,,,,,,,,,,,,,,,,,,,
0.824074009,-0.789072716,1,0,0,next_button,0,5,5,5,1,6,"En cada turno, muevase al cuadro inferior para que aparezcan las cantidades. Desplacese a la cantidad que le daria al OTRO. 

Oprima la flecha para continuar.",15434288,2021-04-21_09h59.00.508,DictadorBinary,2021.1.4,Linux armv7l,60.07449237,,,,,,,,,,,,,,,,,,,,,,,,,,,,,,,,,,,,,,,,,,,,,,,,,,,,,,,,,,,,,,,,,,
0.829629579,-0.803230967,1,0,0,next_button,0,6,6,6,1,7,"Si esta en su celular o una tableta, desplace su dedo por la pantalla mientras escoge.

Oprima la flecha para continuar.",15434288,2021-04-21_09h59.00.508,DictadorBinary,2021.1.4,Linux armv7l,60.07449237,,,,,,,,,,,,,,,,,,,,,,,,,,,,,,,,,,,,,,,,,,,,,,,,,,,,,,,,,,,,,,,,,,
0.835185148,-0.823824489,1,0,0,next_button,0,7,7,7,1,8,"Empecemos con un entrenamiento corto para familiarizarse. 

Oprima la flecha para continuar.",15434288,2021-04-21_09h59.00.508,DictadorBinary,2021.1.4,Linux armv7l,60.07449237,,,,,,,,,,,,,,,,,,,,,,,,,,,,,,,,,,,,,,,,,,,,,,,,,,,,,,,,,,,,,,,,,,
,,,,,,,,,,,,,15434288,2021-04-21_09h59.00.508,DictadorBinary,2021.1.4,Linux armv7l,60.07449237,0.824074009,-0.80966641,1,0,0,partition_image,Otro,"[0.8240740094866071,0.8240740094866071,0.8240740094866071,0.8240740094866071,0.8240740094866071,0.8240740094866071,0.8240740094866071,0.8240740094866071,0.8240740094866071,0.8240740094866071,0.8240740094866071,0.8240740094866071,0.8240740094866071,0.8240740094866071,0.8240740094866071,0.8240740094866071,0.8240740094866071,0.8240740094866071,0.8240740094866071,0.8240740094866071,0.8240740094866071,0.8240740094866071,0.8240740094866071,0.8240740094866071,0.8240740094866071,0.8240740094866071,0.8240740094866071,0.8240740094866071,0.8240740094866071,0.8240740094866071,0.8240740094866071,0.8240740094866071,0.8240740094866071,0.8240740094866071,0.8240740094866071,0.8240740094866071,0.8240740094866071,0.8240740094866071,0.8240740094866071,0.8240740094866071,0.8240740094866071,0.8240740094866071,0.8240740094866071,0.8240740094866071,0.8240740094866071,0.8240740094866071,0.8240740094866071,0.8240740094866071,0.8240740094866071,0.8240740094866071,0.8240740094866071,0.8240740094866071,0.8240740094866071,0.8240740094866071,0.8240740094866071,0.8240740094866071,0.8240740094866071,0.8240740094866071,0.8240740094866071,0.8240740094866071,0.8240740094866071,0.8240740094866071,0.8240740094866071,0.8240740094866071,0.8240740094866071,0.8240740094866071,0.8240740094866071,0.8240740094866071,0.8240740094866071,0.8240740094866071,0.8240740094866071,0.8240740094866071,0.8240740094866071,0.8240740094866071,0.8240740094866071,0.8240740094866071,0.8240740094866071,0.8240740094866071,0.8240740094866071,0.8240740094866071,0.8240740094866071,0.8240740094866071,0.8240740094866071,0.8240740094866071,0.8240740094866071,0.8240740094866071,0.8240740094866071,0.8240740094866071,0.8240740094866071,0.8240740094866071,0.8240740094866071,0.8240740094866071,0.8240740094866071,0.8240740094866071,0.8240740094866071,0.8240740094866071,0.8240740094866071,0.8240740094866071,0.8240740094866071,0.8240740094866071,0.8240740094866071,0.8240740094866071,0.8240740094866071,0.8240740094866071,0.8240740094866071,0.8240740094866071,0.8240740094866071,0.8240740094866071,0.8240740094866071,0.8240740094866071,0.8240740094866071,0.8240740094866071,0.8240740094866071,0.8240740094866071,0.8240740094866071,0.8240740094866071,0.8240740094866071,0.8240740094866071,0.8240740094866071,0.8240740094866071,0.8240740094866071,0.8240740094866071,0.8240740094866071,0.8240740094866071,0.8240740094866071,0.8240740094866071,0.8240740094866071,0.8240740094866071,0.8240740094866071,0.8240740094866071,0.8240740094866071,0.8240740094866071,0.8240740094866071,0.8240740094866071,0.8240740094866071,0.8240740094866071,0.8240740094866071,0.8240740094866071,0.8240740094866071,0.8240740094866071,0.8240740094866071,0.8240740094866071,0.8240740094866071,0.8240740094866071,0.8240740094866071,0.8240740094866071,0.8240740094866071,0.8240740094866071,0.8240740094866071,0.8240740094866071,0.8240740094866071,0.8240740094866071,0.8240740094866071,0.8240740094866071,0.8240740094866071,0.8240740094866071,0.8240740094866071,0.8240740094866071,0.8240740094866071,0.8240740094866071,0.8240740094866071,0.8240740094866071,0.8240740094866071,0.8240740094866071,0.8240740094866071,0.8240740094866071,0.8240740094866071,0.8240740094866071,0.8240740094866071,0.8240740094866071,0.8240740094866071,0.8240740094866071,0.8240740094866071,0.8240740094866071,0.8240740094866071,0.8240740094866071,0.8240740094866071,0.8240740094866071,0.8240740094866071,0.8240740094866071,0.8240740094866071,0.8240740094866071,0.8240740094866071,0.8240740094866071,0.8240740094866071,0.8240740094866071,0.8240740094866071,0.8240740094866071,0.8240740094866071,0.8240740094866071,0.8240740094866071,0.8240740094866071,0.8240740094866071,0.8240740094866071,0.8240740094866071,0.8240740094866071,0.8240740094866071,0.8240740094866071,0.8240740094866071,0.8240740094866071,0.8240740094866071,0.8240740094866071,0.8240740094866071,0.8240740094866071,0.8240740094866071,0.8240740094866071,0.8240740094866071,0.8240740094866071,0.8240740094866071,0.8240740094866071,0.8240740094866071,0.8240740094866071,0.8240740094866071,0.8240740094866071,0.8240740094866071,0.8240740094866071,0.8240740094866071,0.8240740094866071,0.8240740094866071,0.8240740094866071,0.8240740094866071,0.8240740094866071,0.8240740094866071,0.8240740094866071,0.8240740094866071,0.8240740094866071,0.8240740094866071,0.8240740094866071,0.8240740094866071,0.8240740094866071,0.8240740094866071,0.8240740094866071,0.8240740094866071,0.8240740094866071,0.8240740094866071,0.8240740094866071,0.8240740094866071,0.8240740094866071,0.8240740094866071,0.8240740094866071,0.8240740094866071,0.8240740094866071,0.8240740094866071,0.8240740094866071,0.8240740094866071,0.8240740094866071,0.8240740094866071,0.8240740094866071,0.8240740094866071,0.8240740094866071,0.8240740094866071,0.8240740094866071,0.8240740094866071,0.8240740094866071,0.8240740094866071,0.8240740094866071,0.8240740094866071,0.8240740094866071,0.8240740094866071,0.8240740094866071,0.8240740094866071,0.8240740094866071,0.8240740094866071,0.8240740094866071,0.8240740094866071,0.8240740094866071,0.8240740094866071,0.8240740094866071,0.8240740094866071,0.8240740094866071,0.8240740094866071,0.8240740094866071,0.8240740094866071,0.8240740094866071,0.8240740094866071,0.8240740094866071,0.8240740094866071,0.8240740094866071,0.8240740094866071,0.8240740094866071,0.8240740094866071,0.8240740094866071,0.8240740094866071,0.8240740094866071,0.8240740094866071,0.8240740094866071,0.8240740094866071,0.8240740094866071,0.8240740094866071,0.8240740094866071,0.8240740094866071,0.8240740094866071,0.8240740094866071,0.8240740094866071,0.8240740094866071,0.8240740094866071,0.8240740094866071,0.8240740094866071,0.8240740094866071,0.8240740094866071,0.8240740094866071,0.8240740094866071,0.8240740094866071,0.8240740094866071,0.8240740094866071,0.8240740094866071,0.8240740094866071,0.8240740094866071,0.8240740094866071,0.8240740094866071,0.8240740094866071,0.8240740094866071,0.8240740094866071,0.8240740094866071,0.8240740094866071,0.8240740094866071,0.8240740094866071,0.8240740094866071,0.8240740094866071,0.8240740094866071,0.8240740094866071,0.8240740094866071,0.8240740094866071,0.8240740094866071,0.8240740094866071,0.8240740094866071,0.8240740094866071,0.8240740094866071,0.8240740094866071,0.8240740094866071,0.8240740094866071,0.8240740094866071,0.8240740094866071,0.8240740094866071,0.8240740094866071,0.8240740094866071,0.8240740094866071,0.8240740094866071,0.8240740094866071,0.8240740094866071,0.8240740094866071,0.8240740094866071,0.8240740094866071,0.8240740094866071,0.8240740094866071,0.8240740094866071,0.8240740094866071,0.8240740094866071,0.8240740094866071,0.8240740094866071,0.8240740094866071,0.8240740094866071,0.8240740094866071,0.8240740094866071,0.8240740094866071,0.8240740094866071,0.8240740094866071,0.8240740094866071,0.8240740094866071,0.8240740094866071,0.8240740094866071,0.8240740094866071,0.8240740094866071,0.8240740094866071,0.8240740094866071,0.8240740094866071,0.8240740094866071,0.8240740094866071,0.8240740094866071,0.8240740094866071,0.8240740094866071,0.8240740094866071,0.8240740094866071,0.8240740094866071,0.8240740094866071,0.8240740094866071,0.8240740094866071,0.8240740094866071,0.8240740094866071,0.8240740094866071,0.8240740094866071,0.8240740094866071,0.8240740094866071,0.8240740094866071,0.8240740094866071,0.8240740094866071,0.8240740094866071,0.8240740094866071,0.8240740094866071,0.8240740094866071,0.8240740094866071,0.8240740094866071,0.8240740094866071,0.8240740094866071,0.8240740094866071,0.8240740094866071,0.8240740094866071,0.8240740094866071,0.8240740094866071,0.8240740094866071,0.8240740094866071,0.8240740094866071,0.8240740094866071,0.8240740094866071,0.8240740094866071,0.8240740094866071,0.8240740094866071,0.8240740094866071,0.8240740094866071,0.8240740094866071,0.8240740094866071,0.8240740094866071,0.8240740094866071,0.8240740094866071,0.8240740094866071,0.8240740094866071,0.8240740094866071,0.8240740094866071,0.8240740094866071,0.8240740094866071,0.8240740094866071,0.8240740094866071,0.8240740094866071,0.8240740094866071,0.8240740094866071,0.8240740094866071,0.8240740094866071,0.8240740094866071,0.8240740094866071,0.8240740094866071,0.8240740094866071,0.8240740094866071,0.8240740094866071,0.8240740094866071,0.8240740094866071,0.8240740094866071,0.8240740094866071,0.8240740094866071,0.8240740094866071,0.8240740094866071,0.8240740094866071,0.8240740094866071,0.8240740094866071,0.8240740094866071,0.8240740094866071,0.8240740094866071,0.8240740094866071,0.8240740094866071,0.8240740094866071,0.8240740094866071,0.8240740094866071,0.8240740094866071,0.8240740094866071,0.8240740094866071,0.8240740094866071,0.8240740094866071,0.8240740094866071,0.8240740094866071,0.8240740094866071,0.8240740094866071,0.8240740094866071,0.8240740094866071,0.8240740094866071,0.8240740094866071,0.8240740094866071,0.8240740094866071,0.8240740094866071,0.8240740094866071,0.8240740094866071,0.8240740094866071,0.8240740094866071,0.8240740094866071,0.8240740094866071,0.8240740094866071,0.8240740094866071,0.8240740094866071,0.8240740094866071,0.8240740094866071,0.8240740094866071,0.8240740094866071,0.8240740094866071,0.8240740094866071,0.8240740094866071,0.8240740094866071,0.8240740094866071,0.8240740094866071,0.8240740094866071,0.8240740094866071,0.8240740094866071,0.8240740094866071,0.8240740094866071,0.8240740094866071,0.8240740094866071,0.8240740094866071,0.8240740094866071,0.8240740094866071,0.8240740094866071,0.8240740094866071,0.8240740094866071,0.8240740094866071,0.8240740094866071,0.8240740094866071,0.8240740094866071,0.8240740094866071,0.8240740094866071,0.8240740094866071,0.8240740094866071,0.8240740094866071,0.8240740094866071,0.8240740094866071,0.8240740094866071,0.8240740094866071,0.8240740094866071,0.8240740094866071,0.8240740094866071,0.8240740094866071,0.8240740094866071,0.8240740094866071,0.8240740094866071,0.8240740094866071,0.8240740094866071,0.8240740094866071,0.8240740094866071,0.8240740094866071,0.8240740094866071,0.8240740094866071,0.8240740094866071,0.8240740094866071,0.8240740094866071,0.8240740094866071,0.8240740094866071,0.8240740094866071,0.8240740094866071,0.8240740094866071,0.8240740094866071,0.8240740094866071,0.8240740094866071,0.8240740094866071,0.8240740094866071,0.8240740094866071,0.8240740094866071,0.8240740094866071,0.8240740094866071,0.8240740094866071,0.8240740094866071,0.8240740094866071,0.8240740094866071,0.8240740094866071,0.8240740094866071,0.8240740094866071,0.8240740094866071,0.8240740094866071,0.8240740094866071,0.8240740094866071,0.8240740094866071,0.8240740094866071,0.8240740094866071,0.8240740094866071,0.8240740094866071,0.8240740094866071,0.8240740094866071,0.8240740094866071,0.8240740094866071,0.8240740094866071,0.8240740094866071,0.8240740094866071,0.8240740094866071,0.8240740094866071,0.8240740094866071,0.8240740094866071,0.8240740094866071,0.8240740094866071,0.8240740094866071,0.8240740094866071,0.8240740094866071,0.8240740094866071,0.8240740094866071,0.8240740094866071,0.8240740094866071,0.8240740094866071,0.8240740094866071,0.8240740094866071,0.8240740094866071,0.8240740094866071,0.8240740094866071,0.8240740094866071,0.8240740094866071,0.8240740094866071,0.8240740094866071,0.8240740094866071,0.8240740094866071,0.8240740094866071,0.8240740094866071,0.8240740094866071,0.8240740094866071,0.8240740094866071,0.8240740094866071,0.8240740094866071,0.8240740094866071,0.8240740094866071,0.8240740094866071,0.8240740094866071,0.8240740094866071,0.8240740094866071,0.8240740094866071,0.8240740094866071,0.8240740094866071,0.8240740094866071,0.8240740094866071,0.8240740094866071,0.8240740094866071,0.8240740094866071,0.8240740094866071,0.8240740094866071,0.8240740094866071,0.8240740094866071,0.8240740094866071,0.8240740094866071,0.8240740094866071,0.8240740094866071,0.8240740094866071,0.8240740094866071,0.8240740094866071,0.8240740094866071,0.8240740094866071,0.8240740094866071,0.8240740094866071,0.8240740094866071,0.8240740094866071,0.051851856465242346,0.051851856465242346,0.051851856465242346,0.051851856465242346,0.051851856465242346,0.051851856465242346,0.051851856465242346,0.051851856465242346,0.051851856465242346,0.051851856465242346,0.051851856465242346,0.051851856465242346,0.051851856465242346,0.051851856465242346,0.051851856465242346,0.051851856465242346,0.04629628706951531,0.04629628706951531,0.04629628706951531,0.04444443060427296,0.04444443060427296,0.04444443060427296,0.04444443060427296,0.04444443060427296,0.04444443060427296,0.04444443060427296,0.04444443060427296,0.04444443060427296,0.04444443060427296,0.04444443060427296,0.04444443060427296,0.04444443060427296,0.04444443060427296,0.04444443060427296,0.04444443060427296,0.04444443060427296,0.04444443060427296,0.04444443060427296,0.04444443060427296,0.04444443060427296,0.04444443060427296,0.04444443060427296,0.04444443060427296,0.04444443060427296,0.04444443060427296,0.04444443060427296,0.04444443060427296,0.04444443060427296,0.04444443060427296,0.04444443060427296,0.04444443060427296,0.04444443060427296,0.04444443060427296,0.04444443060427296,0.04444443060427296,0.04444443060427296,0.04444443060427296,0.04444443060427296,0.04444443060427296,0.04444443060427296,0.04444443060427296,0.04444443060427296,0.04444443060427296,0.04444443060427296,0.04444443060427296,0.04444443060427296,0.04444443060427296,0.04444443060427296,0.04444443060427296,0.04444443060427296,0.04444443060427296,0.04444443060427296,0.04444443060427296,0.04444443060427296,0.04444443060427296,0.04444443060427296,0.04444443060427296,0.04444443060427296,0.04444443060427296,0.04444443060427296,0.04444443060427296,0.04444443060427296,0.04444443060427296,0.04444443060427296,0.04444443060427296,0.04444443060427296,0.04444443060427296,0.04444443060427296,0.04444443060427296,0.04444443060427296,0.04444443060427296,0.04444443060427296,0.04444443060427296,0.04444443060427296,0.04444443060427296,0.04444443060427296,0.04444443060427296,0.04444443060427296,0.04444443060427296,0.04444443060427296,0.04444443060427296,0.04444443060427296,0.04444443060427296,0.04444443060427296,0.04444443060427296,0.04444443060427296,0.04444443060427296,0.04444443060427296,0.04444443060427296,0.04444443060427296,0.04444443060427296,0.04444443060427296,0.04444443060427296,0.04444443060427296,0.04444443060427296,0.04444443060427296,0.04444443060427296,0.04444443060427296,0.04444443060427296,0.04444443060427296,0.04444443060427296,0.04444443060427296,0.04444443060427296,0.04444443060427296,0.04444443060427296,0.04444443060427296,0.04444443060427296,0.04444443060427296,0.04444443060427296,0.04444443060427296,0.04444443060427296,0.04444443060427296,0.04444443060427296,0.04444443060427296,0.04444443060427296,0.04444443060427296,0.04444443060427296,0.04444443060427296,0.04444443060427296,0.04444443060427296,0.04444443060427296,0.04444443060427296,0.04444443060427296,0.04444443060427296,0.04444443060427296,0.04444443060427296,0.04444443060427296,0.04444443060427296,0.04444443060427296,0.04444443060427296,0.04444443060427296,0.04444443060427296,0.04444443060427296,0.04444443060427296,0.04444443060427296,0.04444443060427296,0.04444443060427296,0.04444443060427296,0.04444443060427296,0.04444443060427296,0.04444443060427296,0.04444443060427296,0.04444443060427296,0.04444443060427296,0.04444443060427296,0.04444443060427296,0.04444443060427296,0.04444443060427296,0.04444443060427296,0.04444443060427296,0.04444443060427296,0.04444443060427296,0.04444443060427296,0.04444443060427296,0.04444443060427296,0.04444443060427296,0.04444443060427296,0.04444443060427296,0.04444443060427296,0.04444443060427296,0.04444443060427296,0.04444443060427296,0.04444443060427296,0.04444443060427296,0.04444443060427296,0.04444443060427296,0.04444443060427296,0.04444443060427296,0.04444443060427296,0.04444443060427296,0.04444443060427296,0.04444443060427296,0.04444443060427296,0.04444443060427296,0.04444443060427296,0.04444443060427296,0.04444443060427296,0.04444443060427296,0.04444443060427296,0.04444443060427296,0.04444443060427296,0.04444443060427296,0.04444443060427296,0.04444443060427296,0.04444443060427296,0.04444443060427296,0.04444443060427296,0.04444443060427296,0.04444443060427296,0.04444443060427296,0.04444443060427296,0.04444443060427296,0.04444443060427296,0.04444443060427296,0.04444443060427296,0.04444443060427296,0.04444443060427296,0.04444443060427296,0.04444443060427296,0.04444443060427296,0.04444443060427296,0.04444443060427296,0.04444443060427296,0.04444443060427296,0.04444443060427296,0.04444443060427296,0.04444443060427296,0.04444443060427296,0.04444443060427296,0.04444443060427296,0.04444443060427296,0.04444443060427296,0.04444443060427296,0.04444443060427296,0.04444443060427296,0.04444443060427296,0.04444443060427296,0.04444443060427296,0.04444443060427296,0.04444443060427296,0.04444443060427296,0.04444443060427296,0.04444443060427296,0.03888886120854592,0.03888886120854592,0.03888886120854592,0.03888886120854592,0.03888886120854592,0.03888886120854592,0.03888886120854592,0.03888886120854592,0.03888886120854592,0.03888886120854592,0.03888886120854592,0.03888886120854592,0.03888886120854592,0.03888886120854592,0.03888886120854592,0.03888886120854592,0.03888886120854592,0.03888886120854592,0.03888886120854592,0.03888886120854592,0.03888886120854592,0.03888886120854592,0.03888886120854592,0.03888886120854592,0.03888886120854592,0.03888886120854592,0.03888886120854592,0.03888886120854592,0.03888886120854592,0.03888886120854592,0.03888886120854592,0.03888886120854592,0.03888886120854592,0.03888886120854592,0.03888886120854592,0.03888886120854592,0.03888886120854592,0.03888886120854592,0.03888886120854592,0.03888886120854592,0.03888886120854592,0.03888886120854592,0.03888886120854592,0.03888886120854592,0.03888886120854592,0.03888886120854592,0.03888886120854592,0.03888886120854592,0.03888886120854592,0.03888886120854592,0.03888886120854592,0.03888886120854592,0.03888886120854592,0.03888886120854592,0.03888886120854592,0.03888886120854592,0.03888886120854592,0.03888886120854592,0.03888886120854592,0.03888886120854592,0.03888886120854592,0.03888886120854592,0.03888886120854592,0.03888886120854592,0.03888886120854592,0.03888886120854592,0.03888886120854592,0.03888886120854592,0.03888886120854592,0.03888886120854592,0.03888886120854592,0.03888886120854592,0.03888886120854592,0.03888886120854592,0.03888886120854592,0.03888886120854592,0.03888886120854592,0.03888886120854592,0.03888886120854592,0.03888886120854592,0.03888886120854592,0.035185148278061226,0.035185148278061226,0.035185148278061226,0.035185148278061226,0.033333291812818876,0.033333291812818876,0.033333291812818876,0.033333291812818876,0.033333291812818876,0.033333291812818876,0.033333291812818876,0.033333291812818876,0.033333291812818876,0.033333291812818876,0.033333291812818876,0.033333291812818876,0.033333291812818876,0.033333291812818876,0.033333291812818876,0.033333291812818876,0.033333291812818876,0.033333291812818876,0.033333291812818876,0.033333291812818876,0.033333291812818876,0.033333291812818876,0.033333291812818876,0.035185148278061226,0.03888886120854592,0.04814814353475765,0.05740742586096939,0.07222227758290817,0.08703700474330357,0.1,0.11851856465242347,0.13518514827806122,0.17777772241709183,0.2148148517219388,0.25555556939572704,0.28333329181281885,0.31851856465242345,0.34814814353475765,0.3648148517219388,0.3851851482780612,0.4,0.41111113879145406,0.42037029655612246,0.4388888612085459]","[-0.8096664104055851,-0.8096664104055851,-0.8096664104055851,-0.8096664104055851,-0.8096664104055851,-0.8096664104055851,-0.8096664104055851,-0.8096664104055851,-0.8096664104055851,-0.8096664104055851,-0.8096664104055851,-0.8096664104055851,-0.8096664104055851,-0.8096664104055851,-0.8096664104055851,-0.8096664104055851,-0.8096664104055851,-0.8096664104055851,-0.8096664104055851,-0.8096664104055851,-0.8096664104055851,-0.8096664104055851,-0.8096664104055851,-0.8096664104055851,-0.8096664104055851,-0.8096664104055851,-0.8096664104055851,-0.8096664104055851,-0.8096664104055851,-0.8096664104055851,-0.8096664104055851,-0.8096664104055851,-0.8096664104055851,-0.8096664104055851,-0.8096664104055851,-0.8096664104055851,-0.8096664104055851,-0.8096664104055851,-0.8096664104055851,-0.8096664104055851,-0.8096664104055851,-0.8096664104055851,-0.8096664104055851,-0.8096664104055851,-0.8096664104055851,-0.8096664104055851,-0.8096664104055851,-0.8096664104055851,-0.8096664104055851,-0.8096664104055851,-0.8096664104055851,-0.8096664104055851,-0.8096664104055851,-0.8096664104055851,-0.8096664104055851,-0.8096664104055851,-0.8096664104055851,-0.8096664104055851,-0.8096664104055851,-0.8096664104055851,-0.8096664104055851,-0.8096664104055851,-0.8096664104055851,-0.8096664104055851,-0.8096664104055851,-0.8096664104055851,-0.8096664104055851,-0.8096664104055851,-0.8096664104055851,-0.8096664104055851,-0.8096664104055851,-0.8096664104055851,-0.8096664104055851,-0.8096664104055851,-0.8096664104055851,-0.8096664104055851,-0.8096664104055851,-0.8096664104055851,-0.8096664104055851,-0.8096664104055851,-0.8096664104055851,-0.8096664104055851,-0.8096664104055851,-0.8096664104055851,-0.8096664104055851,-0.8096664104055851,-0.8096664104055851,-0.8096664104055851,-0.8096664104055851,-0.8096664104055851,-0.8096664104055851,-0.8096664104055851,-0.8096664104055851,-0.8096664104055851,-0.8096664104055851,-0.8096664104055851,-0.8096664104055851,-0.8096664104055851,-0.8096664104055851,-0.8096664104055851,-0.8096664104055851,-0.8096664104055851,-0.8096664104055851,-0.8096664104055851,-0.8096664104055851,-0.8096664104055851,-0.8096664104055851,-0.8096664104055851,-0.8096664104055851,-0.8096664104055851,-0.8096664104055851,-0.8096664104055851,-0.8096664104055851,-0.8096664104055851,-0.8096664104055851,-0.8096664104055851,-0.8096664104055851,-0.8096664104055851,-0.8096664104055851,-0.8096664104055851,-0.8096664104055851,-0.8096664104055851,-0.8096664104055851,-0.8096664104055851,-0.8096664104055851,-0.8096664104055851,-0.8096664104055851,-0.8096664104055851,-0.8096664104055851,-0.8096664104055851,-0.8096664104055851,-0.8096664104055851,-0.8096664104055851,-0.8096664104055851,-0.8096664104055851,-0.8096664104055851,-0.8096664104055851,-0.8096664104055851,-0.8096664104055851,-0.8096664104055851,-0.8096664104055851,-0.8096664104055851,-0.8096664104055851,-0.8096664104055851,-0.8096664104055851,-0.8096664104055851,-0.8096664104055851,-0.8096664104055851,-0.8096664104055851,-0.8096664104055851,-0.8096664104055851,-0.8096664104055851,-0.8096664104055851,-0.8096664104055851,-0.8096664104055851,-0.8096664104055851,-0.8096664104055851,-0.8096664104055851,-0.8096664104055851,-0.8096664104055851,-0.8096664104055851,-0.8096664104055851,-0.8096664104055851,-0.8096664104055851,-0.8096664104055851,-0.8096664104055851,-0.8096664104055851,-0.8096664104055851,-0.8096664104055851,-0.8096664104055851,-0.8096664104055851,-0.8096664104055851,-0.8096664104055851,-0.8096664104055851,-0.8096664104055851,-0.8096664104055851,-0.8096664104055851,-0.8096664104055851,-0.8096664104055851,-0.8096664104055851,-0.8096664104055851,-0.8096664104055851,-0.8096664104055851,-0.8096664104055851,-0.8096664104055851,-0.8096664104055851,-0.8096664104055851,-0.8096664104055851,-0.8096664104055851,-0.8096664104055851,-0.8096664104055851,-0.8096664104055851,-0.8096664104055851,-0.8096664104055851,-0.8096664104055851,-0.8096664104055851,-0.8096664104055851,-0.8096664104055851,-0.8096664104055851,-0.8096664104055851,-0.8096664104055851,-0.8096664104055851,-0.8096664104055851,-0.8096664104055851,-0.8096664104055851,-0.8096664104055851,-0.8096664104055851,-0.8096664104055851,-0.8096664104055851,-0.8096664104055851,-0.8096664104055851,-0.8096664104055851,-0.8096664104055851,-0.8096664104055851,-0.8096664104055851,-0.8096664104055851,-0.8096664104055851,-0.8096664104055851,-0.8096664104055851,-0.8096664104055851,-0.8096664104055851,-0.8096664104055851,-0.8096664104055851,-0.8096664104055851,-0.8096664104055851,-0.8096664104055851,-0.8096664104055851,-0.8096664104055851,-0.8096664104055851,-0.8096664104055851,-0.8096664104055851,-0.8096664104055851,-0.8096664104055851,-0.8096664104055851,-0.8096664104055851,-0.8096664104055851,-0.8096664104055851,-0.8096664104055851,-0.8096664104055851,-0.8096664104055851,-0.8096664104055851,-0.8096664104055851,-0.8096664104055851,-0.8096664104055851,-0.8096664104055851,-0.8096664104055851,-0.8096664104055851,-0.8096664104055851,-0.8096664104055851,-0.8096664104055851,-0.8096664104055851,-0.8096664104055851,-0.8096664104055851,-0.8096664104055851,-0.8096664104055851,-0.8096664104055851,-0.8096664104055851,-0.8096664104055851,-0.8096664104055851,-0.8096664104055851,-0.8096664104055851,-0.8096664104055851,-0.8096664104055851,-0.8096664104055851,-0.8096664104055851,-0.8096664104055851,-0.8096664104055851,-0.8096664104055851,-0.8096664104055851,-0.8096664104055851,-0.8096664104055851,-0.8096664104055851,-0.8096664104055851,-0.8096664104055851,-0.8096664104055851,-0.8096664104055851,-0.8096664104055851,-0.8096664104055851,-0.8096664104055851,-0.8096664104055851,-0.8096664104055851,-0.8096664104055851,-0.8096664104055851,-0.8096664104055851,-0.8096664104055851,-0.8096664104055851,-0.8096664104055851,-0.8096664104055851,-0.8096664104055851,-0.8096664104055851,-0.8096664104055851,-0.8096664104055851,-0.8096664104055851,-0.8096664104055851,-0.8096664104055851,-0.8096664104055851,-0.8096664104055851,-0.8096664104055851,-0.8096664104055851,-0.8096664104055851,-0.8096664104055851,-0.8096664104055851,-0.8096664104055851,-0.8096664104055851,-0.8096664104055851,-0.8096664104055851,-0.8096664104055851,-0.8096664104055851,-0.8096664104055851,-0.8096664104055851,-0.8096664104055851,-0.8096664104055851,-0.8096664104055851,-0.8096664104055851,-0.8096664104055851,-0.8096664104055851,-0.8096664104055851,-0.8096664104055851,-0.8096664104055851,-0.8096664104055851,-0.8096664104055851,-0.8096664104055851,-0.8096664104055851,-0.8096664104055851,-0.8096664104055851,-0.8096664104055851,-0.8096664104055851,-0.8096664104055851,-0.8096664104055851,-0.8096664104055851,-0.8096664104055851,-0.8096664104055851,-0.8096664104055851,-0.8096664104055851,-0.8096664104055851,-0.8096664104055851,-0.8096664104055851,-0.8096664104055851,-0.8096664104055851,-0.8096664104055851,-0.8096664104055851,-0.8096664104055851,-0.8096664104055851,-0.8096664104055851,-0.8096664104055851,-0.8096664104055851,-0.8096664104055851,-0.8096664104055851,-0.8096664104055851,-0.8096664104055851,-0.8096664104055851,-0.8096664104055851,-0.8096664104055851,-0.8096664104055851,-0.8096664104055851,-0.8096664104055851,-0.8096664104055851,-0.8096664104055851,-0.8096664104055851,-0.8096664104055851,-0.8096664104055851,-0.8096664104055851,-0.8096664104055851,-0.8096664104055851,-0.8096664104055851,-0.8096664104055851,-0.8096664104055851,-0.8096664104055851,-0.8096664104055851,-0.8096664104055851,-0.8096664104055851,-0.8096664104055851,-0.8096664104055851,-0.8096664104055851,-0.8096664104055851,-0.8096664104055851,-0.8096664104055851,-0.8096664104055851,-0.8096664104055851,-0.8096664104055851,-0.8096664104055851,-0.8096664104055851,-0.8096664104055851,-0.8096664104055851,-0.8096664104055851,-0.8096664104055851,-0.8096664104055851,-0.8096664104055851,-0.8096664104055851,-0.8096664104055851,-0.8096664104055851,-0.8096664104055851,-0.8096664104055851,-0.8096664104055851,-0.8096664104055851,-0.8096664104055851,-0.8096664104055851,-0.8096664104055851,-0.8096664104055851,-0.8096664104055851,-0.8096664104055851,-0.8096664104055851,-0.8096664104055851,-0.8096664104055851,-0.8096664104055851,-0.8096664104055851,-0.8096664104055851,-0.8096664104055851,-0.8096664104055851,-0.8096664104055851,-0.8096664104055851,-0.8096664104055851,-0.8096664104055851,-0.8096664104055851,-0.8096664104055851,-0.8096664104055851,-0.8096664104055851,-0.8096664104055851,-0.8096664104055851,-0.8096664104055851,-0.8096664104055851,-0.8096664104055851,-0.8096664104055851,-0.8096664104055851,-0.8096664104055851,-0.8096664104055851,-0.8096664104055851,-0.8096664104055851,-0.8096664104055851,-0.8096664104055851,-0.8096664104055851,-0.8096664104055851,-0.8096664104055851,-0.8096664104055851,-0.8096664104055851,-0.8096664104055851,-0.8096664104055851,-0.8096664104055851,-0.8096664104055851,-0.8096664104055851,-0.8096664104055851,-0.8096664104055851,-0.8096664104055851,-0.8096664104055851,-0.8096664104055851,-0.8096664104055851,-0.8096664104055851,-0.8096664104055851,-0.8096664104055851,-0.8096664104055851,-0.8096664104055851,-0.8096664104055851,-0.8096664104055851,-0.8096664104055851,-0.8096664104055851,-0.8096664104055851,-0.8096664104055851,-0.8096664104055851,-0.8096664104055851,-0.8096664104055851,-0.8096664104055851,-0.8096664104055851,-0.8096664104055851,-0.8096664104055851,-0.8096664104055851,-0.8096664104055851,-0.8096664104055851,-0.8096664104055851,-0.8096664104055851,-0.8096664104055851,-0.8096664104055851,-0.8096664104055851,-0.8096664104055851,-0.8096664104055851,-0.8096664104055851,-0.8096664104055851,-0.8096664104055851,-0.8096664104055851,-0.8096664104055851,-0.8096664104055851,-0.8096664104055851,-0.8096664104055851,-0.8096664104055851,-0.8096664104055851,-0.8096664104055851,-0.8096664104055851,-0.8096664104055851,-0.8096664104055851,-0.8096664104055851,-0.8096664104055851,-0.8096664104055851,-0.8096664104055851,-0.8096664104055851,-0.8096664104055851,-0.8096664104055851,-0.8096664104055851,-0.8096664104055851,-0.8096664104055851,-0.8096664104055851,-0.8096664104055851,-0.8096664104055851,-0.8096664104055851,-0.8096664104055851,-0.8096664104055851,-0.8096664104055851,-0.8096664104055851,-0.8096664104055851,-0.8096664104055851,-0.8096664104055851,-0.8096664104055851,-0.8096664104055851,-0.8096664104055851,-0.8096664104055851,-0.8096664104055851,-0.8096664104055851,-0.8096664104055851,-0.8096664104055851,-0.8096664104055851,-0.8096664104055851,-0.8096664104055851,-0.8096664104055851,-0.8096664104055851,-0.8096664104055851,-0.8096664104055851,-0.8096664104055851,-0.8096664104055851,-0.8096664104055851,-0.8096664104055851,-0.8096664104055851,-0.8096664104055851,-0.8096664104055851,-0.8096664104055851,-0.8096664104055851,-0.8096664104055851,-0.8096664104055851,-0.8096664104055851,-0.8096664104055851,-0.8096664104055851,-0.8096664104055851,-0.8096664104055851,-0.8096664104055851,-0.8096664104055851,-0.8096664104055851,-0.8096664104055851,-0.8096664104055851,-0.8096664104055851,-0.8096664104055851,-0.8096664104055851,-0.8096664104055851,-0.8096664104055851,-0.8096664104055851,-0.8096664104055851,-0.8096664104055851,-0.8096664104055851,-0.8096664104055851,-0.8096664104055851,-0.8096664104055851,-0.8096664104055851,-0.8096664104055851,-0.8096664104055851,-0.8096664104055851,-0.8096664104055851,-0.8096664104055851,-0.8096664104055851,-0.8096664104055851,-0.8096664104055851,-0.8096664104055851,-0.8096664104055851,-0.8096664104055851,-0.8096664104055851,-0.8096664104055851,-0.8096664104055851,-0.8096664104055851,-0.8096664104055851,-0.8096664104055851,-0.8096664104055851,-0.8096664104055851,-0.8096664104055851,-0.8096664104055851,-0.8096664104055851,-0.8096664104055851,-0.8096664104055851,-0.8096664104055851,-0.8096664104055851,-0.8096664104055851,-0.8096664104055851,-0.8096664104055851,-0.8096664104055851,-0.8096664104055851,-0.8096664104055851,-0.8096664104055851,-0.8096664104055851,-0.8096664104055851,-0.8096664104055851,-0.8096664104055851,-0.8096664104055851,-0.8096664104055851,-0.8096664104055851,-0.8096664104055851,-0.8096664104055851,-0.8096664104055851,-0.8096664104055851,-0.8096664104055851,-0.8096664104055851,-0.8096664104055851,-0.8096664104055851,-0.8096664104055851,-0.8096664104055851,-0.8096664104055851,-0.8096664104055851,-0.8096664104055851,-0.8096664104055851,-0.8096664104055851,-0.8096664104055851,-0.8096664104055851,-0.8096664104055851,-0.8096664104055851,-0.8096664104055851,-0.8096664104055851,-0.8096664104055851,-0.8096664104055851,-0.8096664104055851,-0.8096664104055851,-0.8096664104055851,-0.8096664104055851,-0.8096664104055851,-0.8096664104055851,-0.8096664104055851,-0.8096664104055851,-0.5882847129875887,-0.5882847129875887,-0.5882847129875887,-0.5882847129875887,-0.5882847129875887,-0.5882847129875887,-0.5882847129875887,-0.5882847129875887,-0.5882847129875887,-0.5882847129875887,-0.5882847129875887,-0.5882847129875887,-0.5882847129875887,-0.5882847129875887,-0.5882847129875887,-0.5882847129875887,-0.5947203291223404,-0.5985815602836879,-0.5985815602836879,-0.6011557721077128,-0.6024427914450354,-0.6024427914450354,-0.6037299839317376,-0.6037299839317376,-0.6050170032690603,-0.6050170032690603,-0.6050170032690603,-0.6050170032690603,-0.6050170032690603,-0.6050170032690603,-0.6050170032690603,-0.6050170032690603,-0.6050170032690603,-0.6050170032690603,-0.6050170032690603,-0.6050170032690603,-0.6050170032690603,-0.6050170032690603,-0.6050170032690603,-0.6050170032690603,-0.6050170032690603,-0.6037299839317376,-0.6037299839317376,-0.6037299839317376,-0.6037299839317376,-0.6037299839317376,-0.6037299839317376,-0.6037299839317376,-0.6037299839317376,-0.6037299839317376,-0.6037299839317376,-0.6037299839317376,-0.6037299839317376,-0.6037299839317376,-0.6037299839317376,-0.6037299839317376,-0.6037299839317376,-0.6037299839317376,-0.6037299839317376,-0.6037299839317376,-0.6037299839317376,-0.6037299839317376,-0.6037299839317376,-0.6037299839317376,-0.6037299839317376,-0.6037299839317376,-0.6037299839317376,-0.6037299839317376,-0.6037299839317376,-0.6037299839317376,-0.6037299839317376,-0.6037299839317376,-0.6037299839317376,-0.6037299839317376,-0.6037299839317376,-0.6037299839317376,-0.6037299839317376,-0.6037299839317376,-0.6037299839317376,-0.6037299839317376,-0.6037299839317376,-0.6037299839317376,-0.6037299839317376,-0.6037299839317376,-0.6037299839317376,-0.6037299839317376,-0.6037299839317376,-0.6037299839317376,-0.6037299839317376,-0.6037299839317376,-0.6037299839317376,-0.6037299839317376,-0.6037299839317376,-0.6037299839317376,-0.6037299839317376,-0.6037299839317376,-0.6037299839317376,-0.6037299839317376,-0.6037299839317376,-0.6037299839317376,-0.6037299839317376,-0.6037299839317376,-0.6037299839317376,-0.6037299839317376,-0.6037299839317376,-0.6037299839317376,-0.6037299839317376,-0.6037299839317376,-0.6037299839317376,-0.6037299839317376,-0.6037299839317376,-0.6037299839317376,-0.6037299839317376,-0.6037299839317376,-0.6037299839317376,-0.6037299839317376,-0.6037299839317376,-0.6037299839317376,-0.6037299839317376,-0.6037299839317376,-0.6037299839317376,-0.6037299839317376,-0.6037299839317376,-0.6037299839317376,-0.6037299839317376,-0.6037299839317376,-0.6037299839317376,-0.6037299839317376,-0.6037299839317376,-0.6037299839317376,-0.6037299839317376,-0.6037299839317376,-0.6037299839317376,-0.6037299839317376,-0.6037299839317376,-0.6037299839317376,-0.6037299839317376,-0.6037299839317376,-0.6037299839317376,-0.6037299839317376,-0.6037299839317376,-0.6037299839317376,-0.6037299839317376,-0.6037299839317376,-0.6037299839317376,-0.6037299839317376,-0.6037299839317376,-0.6037299839317376,-0.6037299839317376,-0.6037299839317376,-0.6037299839317376,-0.6037299839317376,-0.6037299839317376,-0.6037299839317376,-0.6037299839317376,-0.6037299839317376,-0.6037299839317376,-0.6037299839317376,-0.6037299839317376,-0.6037299839317376,-0.6037299839317376,-0.6037299839317376,-0.6037299839317376,-0.6037299839317376,-0.6037299839317376,-0.6037299839317376,-0.6037299839317376,-0.6037299839317376,-0.6037299839317376,-0.6037299839317376,-0.6037299839317376,-0.6037299839317376,-0.6037299839317376,-0.6037299839317376,-0.6037299839317376,-0.6037299839317376,-0.6037299839317376,-0.6037299839317376,-0.6037299839317376,-0.6037299839317376,-0.6037299839317376,-0.6037299839317376,-0.6037299839317376,-0.6037299839317376,-0.6037299839317376,-0.6037299839317376,-0.6037299839317376,-0.6037299839317376,-0.6037299839317376,-0.6037299839317376,-0.6037299839317376,-0.6037299839317376,-0.6037299839317376,-0.6037299839317376,-0.6037299839317376,-0.6037299839317376,-0.6037299839317376,-0.6037299839317376,-0.6037299839317376,-0.6037299839317376,-0.6037299839317376,-0.6037299839317376,-0.6037299839317376,-0.6037299839317376,-0.6037299839317376,-0.6037299839317376,-0.6037299839317376,-0.6037299839317376,-0.6037299839317376,-0.6037299839317376,-0.6037299839317376,-0.6037299839317376,-0.6037299839317376,-0.6037299839317376,-0.6037299839317376,-0.6037299839317376,-0.6037299839317376,-0.6037299839317376,-0.6037299839317376,-0.6037299839317376,-0.6037299839317376,-0.6037299839317376,-0.6037299839317376,-0.6037299839317376,-0.6037299839317376,-0.6037299839317376,-0.6037299839317376,-0.6037299839317376,-0.6037299839317376,-0.6037299839317376,-0.6037299839317376,-0.6037299839317376,-0.6037299839317376,-0.6037299839317376,-0.6037299839317376,-0.6037299839317376,-0.6037299839317376,-0.6037299839317376,-0.6037299839317376,-0.6037299839317376,-0.6037299839317376,-0.6037299839317376,-0.6037299839317376,-0.6178880623891844,-0.6178880623891844,-0.6178880623891844,-0.6178880623891844,-0.6178880623891844,-0.6178880623891844,-0.6178880623891844,-0.6178880623891844,-0.6178880623891844,-0.6178880623891844,-0.6178880623891844,-0.6178880623891844,-0.6178880623891844,-0.6178880623891844,-0.6178880623891844,-0.6178880623891844,-0.6178880623891844,-0.6178880623891844,-0.6178880623891844,-0.6178880623891844,-0.6178880623891844,-0.6178880623891844,-0.6178880623891844,-0.6178880623891844,-0.6178880623891844,-0.6178880623891844,-0.6178880623891844,-0.6178880623891844,-0.6178880623891844,-0.6178880623891844,-0.6178880623891844,-0.6178880623891844,-0.6178880623891844,-0.6178880623891844,-0.6178880623891844,-0.6178880623891844,-0.6178880623891844,-0.6178880623891844,-0.6178880623891844,-0.611452619403812,-0.6050170032690603,-0.6037299839317376,-0.6011557721077128,-0.5998687527703901,-0.5972943677969859,-0.5960073484596631,-0.5947203291223404,-0.5934331366356383,-0.5921459441489362,-0.5921459441489362,-0.5908589248116135,-0.5908589248116135,-0.5895719054742907,-0.5895719054742907,-0.5895719054742907,-0.5895719054742907,-0.5895719054742907,-0.5895719054742907,-0.5895719054742907,-0.5895719054742907,-0.5895719054742907,-0.5895719054742907,-0.5895719054742907,-0.5895719054742907,-0.5895719054742907,-0.5895719054742907,-0.5895719054742907,-0.5895719054742907,-0.5895719054742907,-0.5895719054742907,-0.5895719054742907,-0.5895719054742907,-0.5895719054742907,-0.5895719054742907,-0.5895719054742907,-0.5895719054742907,-0.5895719054742907,-0.5895719054742907,-0.5895719054742907,-0.5895719054742907,-0.5895719054742907,-0.583136289339539,-0.583136289339539,-0.583136289339539,-0.583136289339539,-0.5792750581781915,-0.5792750581781915,-0.5792750581781915,-0.5792750581781915,-0.5792750581781915,-0.5792750581781915,-0.5792750581781915,-0.5792750581781915,-0.5792750581781915,-0.5792750581781915,-0.5792750581781915,-0.5792750581781915,-0.5792750581781915,-0.5792750581781915,-0.5792750581781915,-0.5792750581781915,-0.5792750581781915,-0.5792750581781915,-0.5792750581781915,-0.5792750581781915,-0.5792750581781915,-0.5728394420434397,-0.5728394420434397,-0.559968556072695,-0.5406618808178192,-0.5136327432402482,-0.47888097019060283,-0.43383234984485813,-0.3784868822030142,-0.33858685865469856,-0.2716574378047429,-0.2214603938109486,-0.10433410211657801,-0.00007878296764184398,0.1118991716533688,0.18783816073803192,0.2908064605496454,0.37961650875443265,0.43238767799756206,0.4967428004488032,0.5456527385305852,0.5662463898354388,0.5855529352282801,0.6151562846298759]","[1,0,0,0,0,0,0,0,0,0,0,0,0,0,0,0,0,0,0,0,0,0,0,0,0,0,0,0,0,0,0,0,0,0,0,0,0,0,0,0,0,0,0,0,0,0,0,0,0,0,0,0,0,0,0,0,0,0,0,0,0,0,0,0,0,0,0,0,0,0,0,0,0,0,0,0,0,0,0,0,0,0,0,0,0,0,0,0,0,0,0,0,0,0,0,0,0,0,0,0,0,0,0,0,0,0,0,0,0,0,0,0,0,0,0,0,0,0,0,0,0,0,0,0,0,0,0,0,0,0,0,0,0,0,0,0,0,0,0,0,0,0,0,0,0,0,0,0,0,0,0,0,0,0,0,0,0,0,0,0,0,0,0,0,0,0,0,0,0,0,0,0,0,0,0,0,0,0,0,0,0,0,0,0,0,0,0,0,0,0,0,0,0,0,0,0,0,0,0,0,0,0,0,0,0,0,0,0,0,0,0,0,0,0,0,0,0,0,0,0,0,0,0,0,0,0,0,0,0,0,0,0,0,0,0,0,0,0,0,0,0,0,0,0,0,0,0,0,0,0,0,0,0,0,0,0,0,0,0,0,0,0,0,0,0,0,0,0,0,0,0,0,0,0,0,0,0,0,0,0,0,0,0,0,0,0,0,0,0,0,0,0,0,0,0,0,0,0,0,0,0,0,0,0,0,0,0,0,0,0,0,0,0,0,0,0,0,0,0,0,0,0,0,0,0,0,0,0,0,0,0,0,0,0,0,0,0,0,0,0,0,0,0,0,0,0,0,0,0,0,0,0,0,0,0,0,0,0,0,0,0,0,0,0,0,0,0,0,0,0,0,0,0,0,0,0,0,0,0,0,0,0,0,0,0,0,0,0,0,0,0,0,0,0,0,0,0,0,0,0,0,0,0,0,0,0,0,0,0,0,0,0,0,0,0,0,0,0,0,0,0,0,0,0,0,0,0,0,0,0,0,0,0,0,0,0,0,0,0,0,0,0,0,0,0,0,0,0,0,0,0,0,0,0,0,0,0,0,0,0,0,0,0,0,0,0,0,0,0,0,0,0,0,0,0,0,0,0,0,0,0,0,0,0,0,0,0,0,0,0,0,0,0,0,0,0,0,0,0,0,0,0,0,0,0,0,0,0,0,0,0,0,0,0,0,0,0,0,0,0,0,0,0,0,0,0,0,0,0,0,0,0,0,0,0,0,0,0,0,0,0,0,0,0,0,0,0,0,0,0,0,0,0,0,0,0,0,0,0,0,0,0,0,0,0,0,0,0,0,0,0,0,0,0,0,0,0,0,0,0,0,0,0,0,0,0,0,0,0,0,0,0,0,0,0,0,0,0,0,0,0,0,0,0,0,0,0,0,0,0,0,0,0,0,0,0,0,0,0,0,0,0,0,0,0,0,0,0,0,1,1,1,1,1,1,1,1,1,1,1,1,1,1,1,1,1,1,1,1,1,1,1,1,1,1,1,1,1,1,1,1,1,1,1,1,1,1,1,1,1,0,0,0,0,0,0,0,0,0,0,0,0,0,0,0,0,0,0,0,0,0,0,0,0,0,0,0,0,0,0,0,0,0,0,0,0,0,0,0,0,0,0,0,0,0,0,0,0,0,0,0,0,0,0,0,0,0,0,0,0,0,0,0,0,0,0,0,0,0,0,0,0,0,0,0,0,0,0,0,0,0,0,0,0,0,0,0,0,0,0,0,0,0,0,0,0,0,0,0,0,0,0,0,0,0,0,0,0,0,0,0,0,0,0,0,0,0,0,0,0,0,0,0,0,0,0,0,0,0,0,0,0,0,0,0,0,0,0,0,0,0,0,0,0,0,0,0,0,0,0,0,0,0,0,0,0,0,0,0,0,0,0,0,0,0,0,0,0,0,0,0,0,0,0,0,0,0,0,0,0,0,0,0,0,0,0,0,0,0,0,0,0,0,0,0,0,0,0,0,0,0,0,1,1,1,1,1,1,1,1,1,1,1,1,1,1,1,1,1,1,1,1,1,1,1,1,1,1,1,1,1,1,1,1,1,1,1,1,1,1,1,1,1,1,1,1,1,1,1,1,1,1,1,1,1,1,1,1,1,1,1,1,1,1,1,1,1,1,1,1,1,1,1,1,1,1,1,1,1,1,1,1,1,1,1,1,1,1,1,1,1,1,1,1,1,1,1,1,1,1,1,1,1,1,1,1,1,1,1,1,1,1,1,1,1,1,1,1,1,1,1,1,1,1,1,1,1,1,1,1,1]","[0,0,0,0,0,0,0,0,0,0,0,0,0,0,0,0,0,0,0,0,0,0,0,0,0,0,0,0,0,0,0,0,0,0,0,0,0,0,0,0,0,0,0,0,0,0,0,0,0,0,0,0,0,0,0,0,0,0,0,0,0,0,0,0,0,0,0,0,0,0,0,0,0,0,0,0,0,0,0,0,0,0,0,0,0,0,0,0,0,0,0,0,0,0,0,0,0,0,0,0,0,0,0,0,0,0,0,0,0,0,0,0,0,0,0,0,0,0,0,0,0,0,0,0,0,0,0,0,0,0,0,0,0,0,0,0,0,0,0,0,0,0,0,0,0,0,0,0,0,0,0,0,0,0,0,0,0,0,0,0,0,0,0,0,0,0,0,0,0,0,0,0,0,0,0,0,0,0,0,0,0,0,0,0,0,0,0,0,0,0,0,0,0,0,0,0,0,0,0,0,0,0,0,0,0,0,0,0,0,0,0,0,0,0,0,0,0,0,0,0,0,0,0,0,0,0,0,0,0,0,0,0,0,0,0,0,0,0,0,0,0,0,0,0,0,0,0,0,0,0,0,0,0,0,0,0,0,0,0,0,0,0,0,0,0,0,0,0,0,0,0,0,0,0,0,0,0,0,0,0,0,0,0,0,0,0,0,0,0,0,0,0,0,0,0,0,0,0,0,0,0,0,0,0,0,0,0,0,0,0,0,0,0,0,0,0,0,0,0,0,0,0,0,0,0,0,0,0,0,0,0,0,0,0,0,0,0,0,0,0,0,0,0,0,0,0,0,0,0,0,0,0,0,0,0,0,0,0,0,0,0,0,0,0,0,0,0,0,0,0,0,0,0,0,0,0,0,0,0,0,0,0,0,0,0,0,0,0,0,0,0,0,0,0,0,0,0,0,0,0,0,0,0,0,0,0,0,0,0,0,0,0,0,0,0,0,0,0,0,0,0,0,0,0,0,0,0,0,0,0,0,0,0,0,0,0,0,0,0,0,0,0,0,0,0,0,0,0,0,0,0,0,0,0,0,0,0,0,0,0,0,0,0,0,0,0,0,0,0,0,0,0,0,0,0,0,0,0,0,0,0,0,0,0,0,0,0,0,0,0,0,0,0,0,0,0,0,0,0,0,0,0,0,0,0,0,0,0,0,0,0,0,0,0,0,0,0,0,0,0,0,0,0,0,0,0,0,0,0,0,0,0,0,0,0,0,0,0,0,0,0,0,0,0,0,0,0,0,0,0,0,0,0,0,0,0,0,0,0,0,0,0,0,0,0,0,0,0,0,0,0,0,0,0,0,0,0,0,0,0,0,0,0,0,0,0,0,0,0,0,0,0,0,0,0,0,0,0,0,0,0,0,0,0,0,0,0,0,0,0,0,0,0,0,0,0,0,0,0,0,0,0,0,0,0,0,0,0,0,0,0,0,0,0,0,0,0,0,0,0,0,0,0,0,0,0,0,0,0,0,0,0,0,0,0,0,0,0,0,0,0,0,0,0,0,0,0,0,0,0,0,0,0,0,0,0,0,0,0,0,0,0,0,0,0,0,0,0,0,0,0,0,0,0,0,0,0,0,0,0,0,0,0,0,0,0,0,0,0,0,0,0,0,0,0,0,0,0,0,0,0,0,0,0,0,0,0,0,0,0,0,0,0,0,0,0,0,0,0,0,0,0,0,0,0,0,0,0,0,0,0,0,0,0,0,0,0,0,0,0,0,0,0,0,0,0,0,0,0,0,0,0,0,0,0,0,0,0,0,0,0,0,0,0,0,0,0,0,0,0,0,0,0,0,0,0,0,0,0,0,0,0,0,0,0,0,0,0,0,0,0,0,0,0,0,0,0,0,0,0,0,0,0,0,0,0,0,0,0,0,0,0,0,0,0,0,0,0,0,0,0,0,0,0,0,0,0,0,0,0,0,0,0,0,0,0,0,0,0,0,0,0,0,0,0,0,0,0,0,0,0,0,0,0,0,0,0,0,0,0,0,0,0,0,0,0,0,0,0,0,0,0,0,0,0,0,0,0,0,0,0,0,0,0,0,0,0,0,0,0,0,0,0,0,0,0,0,0,0,0,0,0,0,0,0,0,0,0,0,0,0,0,0,0,0,0,0,0,0,0,0,0,0,0,0,0,0,0,0,0,0,0,0,0,0,0,0,0,0,0,0,0,0,0,0,0,0,0,0,0,0,0,0,0,0,0,0,0,0,0,0,0,0,0,0,0,0,0,0,0,0,0,0,0,0,0,0,0,0,0,0]","[0,0,0,0,0,0,0,0,0,0,0,0,0,0,0,0,0,0,0,0,0,0,0,0,0,0,0,0,0,0,0,0,0,0,0,0,0,0,0,0,0,0,0,0,0,0,0,0,0,0,0,0,0,0,0,0,0,0,0,0,0,0,0,0,0,0,0,0,0,0,0,0,0,0,0,0,0,0,0,0,0,0,0,0,0,0,0,0,0,0,0,0,0,0,0,0,0,0,0,0,0,0,0,0,0,0,0,0,0,0,0,0,0,0,0,0,0,0,0,0,0,0,0,0,0,0,0,0,0,0,0,0,0,0,0,0,0,0,0,0,0,0,0,0,0,0,0,0,0,0,0,0,0,0,0,0,0,0,0,0,0,0,0,0,0,0,0,0,0,0,0,0,0,0,0,0,0,0,0,0,0,0,0,0,0,0,0,0,0,0,0,0,0,0,0,0,0,0,0,0,0,0,0,0,0,0,0,0,0,0,0,0,0,0,0,0,0,0,0,0,0,0,0,0,0,0,0,0,0,0,0,0,0,0,0,0,0,0,0,0,0,0,0,0,0,0,0,0,0,0,0,0,0,0,0,0,0,0,0,0,0,0,0,0,0,0,0,0,0,0,0,0,0,0,0,0,0,0,0,0,0,0,0,0,0,0,0,0,0,0,0,0,0,0,0,0,0,0,0,0,0,0,0,0,0,0,0,0,0,0,0,0,0,0,0,0,0,0,0,0,0,0,0,0,0,0,0,0,0,0,0,0,0,0,0,0,0,0,0,0,0,0,0,0,0,0,0,0,0,0,0,0,0,0,0,0,0,0,0,0,0,0,0,0,0,0,0,0,0,0,0,0,0,0,0,0,0,0,0,0,0,0,0,0,0,0,0,0,0,0,0,0,0,0,0,0,0,0,0,0,0,0,0,0,0,0,0,0,0,0,0,0,0,0,0,0,0,0,0,0,0,0,0,0,0,0,0,0,0,0,0,0,0,0,0,0,0,0,0,0,0,0,0,0,0,0,0,0,0,0,0,0,0,0,0,0,0,0,0,0,0,0,0,0,0,0,0,0,0,0,0,0,0,0,0,0,0,0,0,0,0,0,0,0,0,0,0,0,0,0,0,0,0,0,0,0,0,0,0,0,0,0,0,0,0,0,0,0,0,0,0,0,0,0,0,0,0,0,0,0,0,0,0,0,0,0,0,0,0,0,0,0,0,0,0,0,0,0,0,0,0,0,0,0,0,0,0,0,0,0,0,0,0,0,0,0,0,0,0,0,0,0,0,0,0,0,0,0,0,0,0,0,0,0,0,0,0,0,0,0,0,0,0,0,0,0,0,0,0,0,0,0,0,0,0,0,0,0,0,0,0,0,0,0,0,0,0,0,0,0,0,0,0,0,0,0,0,0,0,0,0,0,0,0,0,0,0,0,0,0,0,0,0,0,0,0,0,0,0,0,0,0,0,0,0,0,0,0,0,0,0,0,0,0,0,0,0,0,0,0,0,0,0,0,0,0,0,0,0,0,0,0,0,0,0,0,0,0,0,0,0,0,0,0,0,0,0,0,0,0,0,0,0,0,0,0,0,0,0,0,0,0,0,0,0,0,0,0,0,0,0,0,0,0,0,0,0,0,0,0,0,0,0,0,0,0,0,0,0,0,0,0,0,0,0,0,0,0,0,0,0,0,0,0,0,0,0,0,0,0,0,0,0,0,0,0,0,0,0,0,0,0,0,0,0,0,0,0,0,0,0,0,0,0,0,0,0,0,0,0,0,0,0,0,0,0,0,0,0,0,0,0,0,0,0,0,0,0,0,0,0,0,0,0,0,0,0,0,0,0,0,0,0,0,0,0,0,0,0,0,0,0,0,0,0,0,0,0,0,0,0,0,0,0,0,0,0,0,0,0,0,0,0,0,0,0,0,0,0,0,0,0,0,0,0,0,0,0,0,0,0,0,0,0,0,0,0,0,0,0,0,0,0,0,0,0,0,0,0,0,0,0,0,0,0,0,0,0,0,0,0,0,0,0,0,0,0,0,0,0,0,0,0,0,0,0,0,0,0,0,0,0,0,0,0,0,0,0,0,0,0,0,0,0,0,0,0,0,0,0,0,0,0,0,0,0,0,0,0,0,0,0,0,0,0,0,0,0,0,0,0,0,0,0,0,0,0,0,0,0,0,0,0,0,0,0,0,0,0,0,0,0,0,0,0,0,0,0,0,0,0,0,0,0,0,0,0,0,0,0,0,0,0,0,0,0,0,0,0,0,0]","[0.00029999999969732016,0.02750000000014552,0.04769999999916763,0.06179999999949359,0.08499999999912689,0.10889999999926658,0.12960000000020955,0.1610000000000582,0.1815999999998894,0.20300000000133878,0.22109999999884167,0.23660000000018044,0.2651000000005297,0.2764999999999418,0.3044999999983702,0.3205000000016298,0.3368000000009488,0.3529000000016822,0.3712000000014086,0.39619999999922584,0.4065999999984342,0.4256999999997788,0.4452999999994063,0.46370000000024447,0.4837999999981548,0.5031999999991967,0.5237000000015541,0.541799999999057,0.5715999999993073,0.5868000000009488,0.6032999999988533,0.627199999998993,0.6383999999998196,0.6565999999984342,0.6823000000003958,0.6929999999993015,0.7210000000013679,0.7407999999995809,0.7609000000011292,0.7724999999991269,0.7926000000006752,0.8119999999980791,0.8322000000007392,0.8623000000006869,0.88379999999961,0.8945999999996275,0.9140999999981432,0.9337999999988824,0.9635999999991327,0.9743000000016764,1.0048999999999069,1.0332000000016706,1.0377999999982421,1.0678999999981897,1.077499999999418,1.0957000000016706,1.1131999999997788,1.1306000000004133,1.1489000000001397,1.1670000000012806,1.1938999999983935,1.203799999999319,1.2307000000000698,1.2502999999996973,1.2705999999998312,1.2858999999989464,1.3132000000005064,1.3243000000002212,1.3425999999999476,1.362199999999575,1.3823000000011234,1.4029000000009546,1.433099999998376,1.4531999999999243,1.470099999998638,1.4968000000008033,1.518000000000029,1.5390000000006694,1.5603999999984808,1.5722999999998137,1.5927999999985332,1.6123000000006869,1.6319000000003143,1.6513000000013562,1.6710999999995693,1.6911000000000058,1.709900000001653,1.728399999999965,1.7593999999990046,1.7796999999991385,1.7907000000013795,1.8104999999995925,1.8289000000004307,1.8483000000014727,1.8672000000005937,1.8968999999997322,1.9177999999992608,1.938799999999901,1.9517999999989115,1.969600000000355,1.9887999999991735,2.0067999999992026,2.026499999999942,2.0583999999980733,2.0790000000015425,2.0898999999990338,2.119699999999284,2.1409999999996217,2.15309999999954,2.1722999999983585,2.1931000000004133,2.224500000000262,2.2458000000005995,2.2564999999995052,2.286499999998341,2.3008999999983644,2.317800000000716,2.3348000000005413,2.351200000000972,2.368399999999383,2.3853999999992084,2.4052000000010594,2.4245999999984633,2.4445999999989,2.4631999999983236,2.492999999998574,2.503899999999703,2.5394000000014785,2.550999999999476,2.566999999999098,2.587599999998929,2.6064000000005763,2.625899999999092,2.6565000000009604,2.667199999999866,2.6873000000014144,2.7157999999981257,2.7373999999981606,2.7498999999988882,2.7695999999996275,2.796299999998155,2.8258999999998196,2.8338000000003376,2.8502000000007683,2.8708000000005995,2.8883999999998196,2.9078999999983353,2.936999999998079,2.9504000000015367,2.9671999999991385,2.988499999999476,3.01759999999922,3.0332999999991443,3.0495999999984633,3.0685000000012224,3.0974999999998545,3.1270000000004075,3.13379999999961,3.1535000000003492,3.171200000000681,3.1916999999994005,3.2109999999993306,3.2305000000014843,3.2599999999983993,3.270300000000134,3.291000000001077,3.310399999998481,3.3290999999990163,3.349099999999453,3.3695000000006985,3.3971999999994296,3.4089999999996508,3.427800000001298,3.447700000000623,3.468300000000454,3.495599999998376,3.521499999998923,3.5429000000003725,3.5542999999997846,3.5737000000008265,3.611799999998766,3.6290999999982887,3.639500000001135,3.6591000000007625,3.677899999998772,3.6964000000007218,3.716599999999744,3.735899999999674,3.7541999999994005,3.773399999998219,3.7930000000014843,3.8123000000014144,3.8342999999986205,3.8519000000014785,3.881699999998091,3.898700000001554,3.9151999999994587,3.943200000001525,3.954200000000128,3.9743000000016764,3.994200000001001,4.013500000000931,4.050100000000384,4.068299999998999,4.081399999999121,4.098300000001473,4.1159999999981665,4.135099999999511,4.166300000000774,4.181899999999587,4.207399999999325,4.218700000001263,4.2370000000009895,4.255000000001019,4.283500000001368,4.298399999999674,4.316200000001118,4.331300000001647,4.350099999999657,4.374700000000303,4.3858000000000175,4.403999999998632,4.423999999999069,4.4445999999989,4.463199999998324,4.484300000000076,4.513500000000931,4.524199999999837,4.541700000001583,4.561499999999796,4.581900000001042,4.600900000001275,4.619999999998981,4.639699999999721,4.669300000001385,4.689399999999296,4.708999999998923,4.73240000000078,4.753799999998591,4.776000000001659,4.798900000001595,4.8149000000012165,4.831999999998516,4.847999999998137,4.87749999999869,4.8915000000015425,4.910299999999552,4.92949999999837,4.967899999999645,4.9857000000010885,4.997299999999086,5.017499999998108,5.0450999999993655,5.055899999999383,5.074799999998504,5.092700000001059,5.110599999999977,5.128499999998894,5.15599999999904,5.167399999998452,5.184300000000803,5.20339999999851,5.223699999998644,5.242999999998574,5.263899999998102,5.284599999999045,5.303599999999278,5.333900000001449,5.365399999998772,5.383499999999913,5.405699999999342,5.418099999998958,5.438799999999901,5.457399999999325,5.477399999999761,5.508699999998498,5.532100000000355,5.550500000001193,5.563500000000204,5.582200000000739,5.6107000000010885,5.623199999998178,5.640299999999115,5.6591000000007625,5.6784999999981665,5.697299999999814,5.716100000001461,5.736700000001292,5.766899999998714,5.779900000001362,5.798900000001595,5.8145000000004075,5.8320999999996275,5.860599999999977,5.872299999999086,5.899300000000949,5.927700000000186,5.9328999999997905,5.953799999999319,5.973500000000058,5.992999999998574,6.01339999999982,6.033400000000256,6.065099999999802,6.07930000000124,6.095399999998335,6.115000000001601,6.134200000000419,6.153500000000349,6.172500000000582,6.193100000000413,6.211999999999534,6.23410000000149,6.264699999999721,6.279999999998836,6.30619999999908,6.317299999998795,6.345799999999144,6.363300000000891,6.386999999998807,6.39969999999812,6.416300000000774,6.434700000001612,6.453799999999319,6.471399999998539,6.4891999999999825,6.522799999998824,6.529500000000553,6.54859999999826,6.5777000000016415,6.595600000000559,6.62329999999929,6.634300000001531,6.654099999999744,6.6732000000010885,6.692599999998492,6.712100000000646,6.732100000001083,6.761999999998807,6.778999999998632,6.795399999999063,6.811900000000605,6.832699999999022,6.863099999998667,6.878199999999197,6.894700000000739,6.913000000000466,6.931000000000495,6.951099999998405,6.969600000000355,6.989900000000489,7.0086000000010245,7.045300000001589,7.063999999998487,7.07930000000124,7.0953000000008615,7.111700000001292,7.1313999999983935,7.151699999998527,7.170900000000984,7.19090000000142,7.220900000000256,7.2321999999985565,7.252700000000914,7.27100000000064,7.290899999999965,7.3104999999995925,7.3303000000014435,7.349200000000565,7.36869999999908,7.388699999999517,7.418600000000879,7.439299999998184,7.459100000000035,7.481199999998353,7.494399999999587,7.512900000001537,7.53150000000096,7.552100000000792,7.570100000000821,7.59059999999954,7.6084999999984575,7.6291999999994005,7.647899999999936,7.668000000001484,7.687399999998888,7.705900000000838,7.7259999999987485,7.756199999999808,7.776999999998225,7.79739999999947,7.811200000000099,7.8267999999989115,7.847099999999045,7.868999999998778,7.88720000000103,7.907299999998941,7.924899999998161,7.946800000001531,7.972799999999552,7.993099999999686,8.011900000001333,8.03610000000117,8.046999999998661,8.066800000000512,8.098399999998946,8.109799999998359,8.129000000000815,8.148300000000745,8.185099999998783,8.193899999998393,8.209800000000541,8.228899999998248,8.26510000000053,8.278399999999237,8.292900000000373,8.309900000000198,8.329900000000634,8.347799999999552,8.367999999998574,8.389200000001438,8.40899999999965,8.426299999999173,8.447199999998702,8.465299999999843,8.484499999998661,8.514599999998609,8.535400000000664,8.546500000000378,8.578499999999622,8.599200000000565,8.610499999998865,8.629799999998795,8.650499999999738,8.680499999998574,8.703699999998207,8.71480000000156,8.734400000001187,8.753700000001118,8.772799999998824,8.803299999999581,8.813799999999901,8.833599999998114,8.855100000000675,8.87159999999858,8.891599999999016,8.912199999998847,8.930700000000797,8.951399999998102,8.969499999999243,8.988900000000285,9.00930000000153,9.04569999999876,9.060900000000402,9.082699999999022,9.09400000000096,9.125800000001618,9.13839999999982,9.155800000000454,9.173800000000483,9.193899999998393,9.212999999999738,9.23240000000078,9.25249999999869,9.281399999999849,9.29320000000007,9.312900000000809,9.332800000000134,9.363499999999476,9.384799999999814,9.395199999999022,9.415000000000873,9.451799999998912,9.458299999998417,9.47780000000057,9.49659999999858,9.516100000000733,9.552800000001298,9.558600000000297,9.577900000000227,9.614900000000489,9.626599999999598,9.642299999999523,9.65940000000046,9.67870000000039,9.708299999998417,9.726900000001478,9.741900000000896,9.767499999998108,9.777500000000146,9.794999999998254,9.813200000000506,9.83220000000074,9.860000000000582,9.87960000000021,9.891700000000128,9.911400000000867,9.931400000001304,9.96270000000004,9.984300000000076,9.994999999998981,10.01510000000053,10.04439999999886,10.057799999998679,10.075400000001537,10.093600000000151,10.113799999999173,10.13300000000163,10.15309999999954,10.17239999999947,10.209200000001147,10.228100000000268,10.241300000001502,10.26640000000043,10.27679999999964,10.303499999998166,10.314500000000407,10.33179999999993,10.349600000001374,10.377400000001217,10.390999999999622,10.41479999999865,10.433700000001409,10.44419999999809,10.464100000001054,10.482800000001589,10.503799999998591,10.523099999998522,10.543099999998958,10.561000000001513,10.579200000000128,10.599099999999453,10.630700000001525,10.640500000001339,10.659700000000157,10.675500000001193,10.694999999999709,10.712800000001153,10.731400000000576,10.758300000001327,10.773399999998219,10.790199999999459,10.807099999998172,10.837299999999232,10.84769999999844,10.885800000000017,10.891199999998207,10.92109999999957,10.942800000000716,10.956699999998818,10.983499999998457,10.996299999998882,11.019899999999325,11.047599999998056,11.057600000000093,11.092400000001362,11.106700000000274,11.12289999999848,11.139800000000832,11.164400000001478,11.177100000000792,11.201000000000931,11.212400000000343,11.245999999999185,11.262699999999313,11.274000000001251,11.311499999999796,11.323599999999715,11.33940000000075,11.356100000000879,11.375800000001618,11.395799999998417,11.414899999999761,11.43539999999848,11.454900000000634,11.475500000000466,11.49409999999989,11.514500000001135,11.533800000001065,11.563399999999092,11.574599999999919,11.59349999999904,11.625100000001112,11.646499999998923,11.657500000001164,11.677299999999377,11.696599999999307,11.715899999999237,11.735599999999977,11.766599999999016,11.77730000000156,11.80370000000039,11.81460000000152,11.83350000000064,11.850900000001275,11.868500000000495,11.885800000000017,11.90230000000156,11.921999999998661,11.942200000001321,11.959900000001653,11.98029999999926,11.998999999999796,12.018700000000536,12.038400000001275,12.057499999998981,12.076099999998405,12.095399999998335,12.125899999999092,12.138599999998405,12.15480000000025,12.187799999999697,12.207600000001548,12.22269999999844,12.238699999998062,12.255700000001525,12.275799999999435,12.295999999998457,12.326199999999517,12.34649999999965,12.365900000000693,12.395700000000943,12.413300000000163,12.424299999998766,12.454200000000128,12.464599999999336,12.482499999998254,12.502199999998993,12.522400000001653,12.561000000001513,12.581099999999424,12.66359999999986,12.699899999999616,12.711999999999534,12.742799999999988,12.765500000001339,12.788199999999051,12.808899999999994,12.832800000000134,12.854400000000169,12.870899999998073,12.89429999999993,12.935499999999593,12.958800000000338,12.980899999998655,13.00340000000142,13.024799999999232,13.04490000000078,13.067599999998492,13.08889999999883,13.109799999998359,13.122800000001007,13.149799999999232,13.173200000001088,13.186699999998382,13.204099999999016,13.22269999999844,13.245500000000902,13.26589999999851,13.28559999999925,13.31840000000011,13.341899999999441,13.366099999999278,13.390800000001036,13.413899999999558,13.430000000000291,13.468899999999849,13.487300000000687,13.503799999998591,13.520100000001548,13.546500000000378,13.575099999998201,13.58640000000014,13.605500000001484,13.631000000001222,13.65139999999883,13.66229999999996,13.682499999998981,13.70260000000053,13.731999999999971,13.751499999998487,13.77270000000135,13.795200000000477,13.816100000000006,13.838500000001659,13.860799999998562,13.882300000001123,13.905299999998533,13.926299999999173,13.948300000000017,13.97019999999975,13.993500000000495,14.014400000000023,14.035400000000664,14.053299999999581,14.078699999998207,14.108700000000681,14.12710000000152,14.149199999999837,14.17069999999876,14.193899999998393,14.214899999999034,14.245100000000093,14.262900000001537,14.274199999999837,14.305499999998574,14.327000000001135,14.348699999998644,14.37039999999979,14.393199999998615,14.41479999999865,14.436399999998685,14.452700000001641,14.47820000000138,14.500199999998586,14.522600000000239,14.536000000000058,14.564399999999296,14.586200000001554,14.602200000001176,14.628899999999703,14.65060000000085,14.67160000000149,14.693999999999505,14.715899999999237,14.737300000000687,14.759500000000116,14.780699999999342,14.80370000000039,14.82589999999982,14.84860000000117,14.871200000001409,14.893499999998312,14.915000000000873,14.936900000000605,14.958699999999226,14.979299999999057,15.000700000000506,15.022099999998318,15.044000000001688,15.065999999998894,15.076300000000629,15.096399999998539,15.115900000000693,15.13550000000032,15.155699999999342,15.187600000001112,15.208699999999226,15.229400000000169,15.253000000000611,15.274300000000949,15.28610000000117,15.316999999999098,15.335599999998522,15.361300000000483,15.382699999998295,15.405800000000454,15.426899999998568,15.447799999998097,15.470300000000861,15.49199999999837,15.514299999998912,15.536299999999756,15.558399999998073,15.580200000000332,15.604299999999057,15.625800000001618,15.647099999998318,15.676299999999173,15.693299999998999,15.714599999999336,15.736199999999371,15.757699999998295,15.777999999998428,15.798699999999371,15.820800000001327,15.843799999998737,15.855100000000675,15.887299999998504,15.908299999999144,15.919999999998254,15.952900000000227,15.97360000000117,15.99539999999979,16.019499999998516,16.041399999998248,16.066100000000006,16.08759999999893,16.10979999999836,16.124400000000605,16.154500000000553,16.17699999999968,16.198499999998603,16.220499999999447,16.242200000000594,16.26520000000164,16.286800000001676,16.308600000000297,16.33060000000114,16.353100000000268,16.37510000000111,16.39600000000064,16.406999999999243,16.43790000000081,16.459900000001653,16.480899999998655,16.503600000000006,16.52560000000085,16.547099999999773,16.558099999998376,16.578600000000733,16.596699999998236,16.617699999998877,16.64719999999943,16.66779999999926,16.683099999998376,16.70969999999943,16.729299999999057,16.74949999999808,16.77179999999862,16.794099999999162,16.81710000000021,16.83309999999983,16.85949999999866,16.8804999999993,16.90269999999873,16.92540000000008,16.946499999998196,16.969300000000658,16.990900000000693,17.013299999998708,17.03519999999844,17.056400000001304,17.067800000000716,17.08729999999923,17.107499999998254,17.137699999999313,17.159299999999348,17.180899999999383,17.20300000000134,17.21640000000116,17.245200000001205,17.268400000000838,17.290099999998347,17.31239999999889,17.334900000001653,17.355999999999767,17.378099999998085,17.39930000000095,17.43000000000029,17.448599999999715,17.48029999999926,17.501400000001013,17.52600000000166,17.54739999999947,17.5666999999994,17.591300000000047,17.604699999999866,17.624299999999494,17.653699999998935,17.675599999998667,17.697100000001228,17.71089999999822,17.73110000000088,17.76220000000103,17.78689999999915,17.80870000000141,17.83260000000155,17.85450000000128,17.877400000001217,17.900499999999738,17.923099999999977,17.939500000000407,17.972799999999552,17.993099999999686,18.01550000000134,18.038300000000163,18.063099999999395,18.085800000000745,18.10859999999957,18.137699999999313,18.166700000001583,18.188099999999395,18.21010000000024,18.234400000001187,18.256399999998393,18.279900000001362,18.30069999999978,18.323300000000017,18.348300000001473,18.369399999999587,18.393400000000838,18.416000000001077,18.43869999999879,18.461200000001554,18.487199999999575,18.5083999999988,18.53269999999975,18.554799999998068,18.566399999999703,18.588199999998324,18.60859999999957,18.62840000000142,18.64849999999933,18.681400000001304,18.6974999999984,18.71350000000166,18.733899999999267,18.753899999999703,18.77509999999893,18.797099999999773,18.818599999998696,18.85099999999875,18.87169999999969,18.894100000001345,18.917300000000978,18.941900000001624,18.962899999998626,18.98700000000099,19.010699999998906,19.03389999999854,19.0541000000012,19.077799999999115,19.099600000001374,19.124400000000605,19.145199999999022,19.168900000000576,19.18079999999827,19.215400000000955,19.230599999998958,19.245899999998073,19.262900000001537,19.282599999998638,19.30080000000089,19.318599999998696,19.33729999999923,19.355899999998655,19.37489999999889,19.40429999999833,19.422599999998056,19.44250000000102,19.461699999999837,19.484700000000885,19.50500000000102,19.516100000000733,19.53649999999834,19.558600000000297,19.577900000000227,19.610499999998865,19.632300000001123,19.654900000001362,19.676699999999983,19.7000999999982,19.724999999998545,19.745100000000093,19.76380000000063,19.792099999998754,19.815599999998085,19.836100000000442,19.85949999999866,19.882399999998597,19.906299999998737,19.928100000000995,19.95219999999972,19.975800000000163,20.006799999999203,20.02479999999923,20.051100000000588,20.07289999999921,20.10269999999946,20.112099999998463,20.1304999999993,20.161299999999756,20.18370000000141,20.206600000001345,20.22859999999855,20.246100000000297,20.272400000001653,20.29439999999886,20.30579999999827,20.327399999998306,20.349699999998847,20.382000000001426,20.405699999999342,20.427599999999074,20.451099999998405,20.473399999998946,20.49699999999939,20.5125999999982,20.542099999998754,20.566800000000512,20.59049999999843,20.611799999998766,20.635200000000623,20.65780000000086,20.68029999999999,20.704099999999016,20.72690000000148,20.75,20.773199999999633,20.79609999999957]",20.8848,,20.8848,20.8848,"[0,-0.6]",,20.8848,12.6698,20.8848,"[0.5,0.7]",8.215,7.8246,0.3904,12.6698,Acepta,0,0,0,0,0,1,0,25,Train,Otro,5,3,25,10,,,,,,,,,,,,,,,,,,,,,,,,
,,,,,,,,,,,,,15434288,2021-04-21_09h59.00.508,DictadorBinary,2021.1.4,Linux armv7l,60.07449237,0.844444431,-0.789072716,1,0,0,partition_image,Otro,"[0.844444430604273,0.844444430604273,0.844444430604273,0.844444430604273,0.7851851482780612,0.7851851482780612,0.7851851482780612,0.7851851482780612,0.7851851482780612,0.7851851482780612,0.7851851482780612,0.7851851482780612,0.7851851482780612,0.7851851482780612,0.7851851482780612,0.7851851482780612,0.7851851482780612,0.7851851482780612,0.7851851482780612,0.7851851482780612,0.7851851482780612,0.7851851482780612,0.7851851482780612,0.7851851482780612,0.7851851482780612,0.7851851482780612,0.7851851482780612,0.7851851482780612,0.7851851482780612,0.7851851482780612,0.7851851482780612,0.7851851482780612,0.7851851482780612,0.7851851482780612,0.7851851482780612,0.7851851482780612,0.7851851482780612,0.7851851482780612,0.7851851482780612,0.7851851482780612,0.7851851482780612,0.7851851482780612,0.7851851482780612,0.7851851482780612,0.7851851482780612,0.7851851482780612,0.7851851482780612,0.7851851482780612,0.7851851482780612,0.7851851482780612,0.7851851482780612,0.7851851482780612,0.7851851482780612,0.7851851482780612,0.7851851482780612,0.7851851482780612,0.7851851482780612,0.7851851482780612,0.7851851482780612,0.7851851482780612,0.7851851482780612,0.7851851482780612,0.7851851482780612,0.7851851482780612,0.7851851482780612,0.7851851482780612,0.7851851482780612,0.7851851482780612,0.7851851482780612,0.7851851482780612,0.7851851482780612,0.7851851482780612,0.7851851482780612,0.7851851482780612,0.7851851482780612,0.7851851482780612,0.7851851482780612,0.7851851482780612,0.7851851482780612,0.7851851482780612,0.7851851482780612,0.7851851482780612,0.7851851482780612,0.7851851482780612,0.7851851482780612,0.7851851482780612,0.7851851482780612,0.7851851482780612,0.7851851482780612,0.7851851482780612,0.7851851482780612,0.7851851482780612,0.7851851482780612,0.7851851482780612,0.7851851482780612,0.7851851482780612,0.7851851482780612,0.7851851482780612,0.7851851482780612,0.7851851482780612,0.035185148278061226,0.035185148278061226,0.035185148278061226,0.035185148278061226,0.035185148278061226,0.035185148278061226,0.035185148278061226,0.035185148278061226,0.035185148278061226,0.035185148278061226,0.035185148278061226,0.035185148278061226,0.035185148278061226,0.035185148278061226,0.035185148278061226,0.035185148278061226,0.035185148278061226,0.035185148278061226,0.035185148278061226,0.035185148278061226,0.024074009486607144,0.024074009486607144,0.024074009486607144,0.018518502371651785,0.018518502371651785,0.018518502371651785,0.018518502371651785,0.014814789441167093,0.014814789441167093,0.014814789441167093,0.014814789441167093,0.014814789441167093,0.014814789441167093,0.014814789441167093,0.014814789441167093,0.014814789441167093,0.014814789441167093,0.014814789441167093,0.014814789441167093,0.012962995256696428,0.012962995256696428,0.012962995256696428,0.012962995256696428,0.012962995256696428,0.012962995256696428,0.012962995256696428,0.012962995256696428,0.012962995256696428,0.012962995256696428,0.012962995256696428,0.011111076510682398,0.011111076510682398,0.011111076510682398,0.011111076510682398,0.011111076510682398,0.014814789441167093,0.025925928232621173,0.040740717673788264,0.05555556939572704,0.08333329181281887,0.11851856465242347,0.14814814353475766,0.18148143534757652,0.2574074258609694,0.2907407176737883,0.33703700474330356,0.3833332918128189,0.41111113879145406,0.4462962870695153,0.4611111387914541,0.47407400948660716,0.4833334163743622,0.5]","[-0.7890727158133866,-0.7890727158133866,-0.7890727158133866,-0.7890727158133866,-0.8135276415669326,-0.8135276415669326,-0.8135276415669326,-0.8135276415669326,-0.8135276415669326,-0.8135276415669326,-0.8135276415669326,-0.8135276415669326,-0.8135276415669326,-0.8135276415669326,-0.8135276415669326,-0.8135276415669326,-0.8135276415669326,-0.8135276415669326,-0.8135276415669326,-0.8135276415669326,-0.8135276415669326,-0.8135276415669326,-0.8135276415669326,-0.8135276415669326,-0.8135276415669326,-0.8135276415669326,-0.8135276415669326,-0.8135276415669326,-0.8135276415669326,-0.8135276415669326,-0.8135276415669326,-0.8135276415669326,-0.8135276415669326,-0.8135276415669326,-0.8135276415669326,-0.8135276415669326,-0.8135276415669326,-0.8135276415669326,-0.8135276415669326,-0.8135276415669326,-0.8135276415669326,-0.8135276415669326,-0.8135276415669326,-0.8135276415669326,-0.8135276415669326,-0.8135276415669326,-0.8135276415669326,-0.8135276415669326,-0.8135276415669326,-0.8135276415669326,-0.8135276415669326,-0.8135276415669326,-0.8135276415669326,-0.8135276415669326,-0.8135276415669326,-0.8135276415669326,-0.8135276415669326,-0.8135276415669326,-0.8135276415669326,-0.8135276415669326,-0.8135276415669326,-0.8135276415669326,-0.8135276415669326,-0.8135276415669326,-0.8135276415669326,-0.8135276415669326,-0.8135276415669326,-0.8135276415669326,-0.8135276415669326,-0.8135276415669326,-0.8135276415669326,-0.8135276415669326,-0.8135276415669326,-0.8135276415669326,-0.8135276415669326,-0.8135276415669326,-0.8135276415669326,-0.8135276415669326,-0.8135276415669326,-0.8135276415669326,-0.8135276415669326,-0.8135276415669326,-0.8135276415669326,-0.8135276415669326,-0.8135276415669326,-0.8135276415669326,-0.8135276415669326,-0.8135276415669326,-0.8135276415669326,-0.8135276415669326,-0.8135276415669326,-0.8135276415669326,-0.8135276415669326,-0.8135276415669326,-0.8135276415669326,-0.8135276415669326,-0.8135276415669326,-0.8135276415669326,-0.8135276415669326,-0.8135276415669326,-0.6075912150930851,-0.6075912150930851,-0.6075912150930851,-0.6075912150930851,-0.6075912150930851,-0.6075912150930851,-0.6075912150930851,-0.6075912150930851,-0.6075912150930851,-0.6075912150930851,-0.6075912150930851,-0.6075912150930851,-0.6075912150930851,-0.6075912150930851,-0.6075912150930851,-0.6075912150930851,-0.6075912150930851,-0.6075912150930851,-0.6075912150930851,-0.6075912150930851,-0.6127396387411348,-0.6127396387411348,-0.6127396387411348,-0.6153138505651595,-0.6153138505651595,-0.6153138505651595,-0.6153138505651595,-0.6166008699024823,-0.6166008699024823,-0.6166008699024823,-0.6166008699024823,-0.6166008699024823,-0.6166008699024823,-0.6166008699024823,-0.6166008699024823,-0.6166008699024823,-0.6166008699024823,-0.6166008699024823,-0.6166008699024823,-0.6166008699024823,-0.6166008699024823,-0.6166008699024823,-0.6166008699024823,-0.6166008699024823,-0.6166008699024823,-0.6166008699024823,-0.6166008699024823,-0.6166008699024823,-0.6166008699024823,-0.6166008699024823,-0.6166008699024823,-0.6153138505651595,-0.6140268312278369,-0.611452619403812,-0.6075912150930851,-0.5908589248116135,-0.5651169797207447,-0.531652226008422,-0.49303904864804965,-0.4389807734929078,-0.3669030155695922,-0.3089833361037234,-0.24462821365248227,-0.0785920704510195,-0.007801418439716312,0.10288943026928192,0.21358027897828014,0.2869450995262633,0.39248748129986705,0.4529813725897606,0.5430785267065603,0.5765431938441933,0.6112949668938387]","[1,0,0,0,1,1,1,0,0,0,0,0,0,0,0,0,0,0,0,0,0,0,0,0,0,0,0,0,0,0,0,0,0,0,0,0,0,0,0,0,0,0,0,0,0,0,0,0,0,0,0,0,0,0,0,0,0,0,0,0,0,0,0,0,0,0,0,0,0,0,0,0,0,0,0,0,0,0,0,0,0,0,0,0,0,0,0,0,0,0,0,0,0,0,0,0,0,0,0,0,1,1,1,1,1,1,1,1,1,1,1,1,1,1,1,1,1,1,1,1,1,1,1,1,1,1,1,1,1,1,1,1,1,1,1,1,1,1,1,1,1,1,1,1,1,1,1,1,1,1,1,1,1,1,1,1,1,1,1,1,1,1,1,1,1,1,1,1,1,1,1,1,1]","[0,0,0,0,0,0,0,0,0,0,0,0,0,0,0,0,0,0,0,0,0,0,0,0,0,0,0,0,0,0,0,0,0,0,0,0,0,0,0,0,0,0,0,0,0,0,0,0,0,0,0,0,0,0,0,0,0,0,0,0,0,0,0,0,0,0,0,0,0,0,0,0,0,0,0,0,0,0,0,0,0,0,0,0,0,0,0,0,0,0,0,0,0,0,0,0,0,0,0,0,0,0,0,0,0,0,0,0,0,0,0,0,0,0,0,0,0,0,0,0,0,0,0,0,0,0,0,0,0,0,0,0,0,0,0,0,0,0,0,0,0,0,0,0,0,0,0,0,0,0,0,0,0,0,0,0,0,0,0,0,0,0,0,0,0,0,0,0,0,0,0,0,0]","[0,0,0,0,0,0,0,0,0,0,0,0,0,0,0,0,0,0,0,0,0,0,0,0,0,0,0,0,0,0,0,0,0,0,0,0,0,0,0,0,0,0,0,0,0,0,0,0,0,0,0,0,0,0,0,0,0,0,0,0,0,0,0,0,0,0,0,0,0,0,0,0,0,0,0,0,0,0,0,0,0,0,0,0,0,0,0,0,0,0,0,0,0,0,0,0,0,0,0,0,0,0,0,0,0,0,0,0,0,0,0,0,0,0,0,0,0,0,0,0,0,0,0,0,0,0,0,0,0,0,0,0,0,0,0,0,0,0,0,0,0,0,0,0,0,0,0,0,0,0,0,0,0,0,0,0,0,0,0,0,0,0,0,0,0,0,0,0,0,0,0,0,0]","[0,0.008700000002136221,0.029400000003079185,0.04750000000058208,0.07840000000214786,0.11290000000008149,0.13330000000132713,0.15780000000086147,0.1739000000015949,0.18879999999990105,0.20530000000144355,0.22300000000177533,0.24320000000079744,0.26339999999981956,0.283000000003085,0.30200000000331784,0.3221000000012282,0.35300000000279397,0.36450000000331784,0.3849000000009255,0.4054000000032829,0.4264000000002852,0.45750000000043656,0.48550000000250293,0.49060000000099535,0.5201000000015483,0.5312000000012631,0.5498000000006869,0.5670000000027358,0.5859000000018568,0.6024000000033993,0.6204000000034284,0.6377000000029511,0.6554000000032829,0.6747000000032131,0.6971000000012282,0.7330000000001746,0.7387000000016997,0.7692000000024564,0.7919000000001688,0.805900000003021,0.8225000000020373,0.8507000000026892,0.8758000000016182,0.8881000000001222,0.9083000000027823,0.9283000000032189,0.948500000002241,0.9674000000013621,0.9893000000010943,1.0069000000003143,1.025500000003376,1.0465000000003783,1.064700000002631,1.0840000000025611,1.1063000000031025,1.1244000000006054,1.143900000002759,1.1631000000015774,1.1817000000010012,1.201600000000326,1.2316000000027998,1.2427999999999884,1.261900000001333,1.2813000000023749,1.3013000000028114,1.3206000000027416,1.340700000000652,1.3682000000007974,1.381200000003446,1.4110000000000582,1.4233000000022002,1.4550000000017462,1.4709000000002561,1.4873000000006869,1.506200000003446,1.5426000000006752,1.5659000000014203,1.5709999999999127,1.6010999999998603,1.611400000001595,1.6295000000027358,1.6506000000008498,1.6652000000030966,1.6832000000031258,1.7017000000014377,1.7190000000009604,1.7383000000008906,1.7656000000024505,1.7762000000002445,1.7937000000019907,1.81340000000273,1.8321000000032654,1.8518000000003667,1.870600000002014,1.9086999999999534,1.9253000000026077,1.9375,1.9570000000021537,1.97530000000188,2.0103000000017346,2.029500000000553,2.1050000000032014,2.14180000000124,2.1645000000025902,2.1851999999998952,2.209000000002561,2.2352000000028056,2.2567000000017288,2.2771000000029744,2.300200000001496,2.3228000000017346,2.338000000003376,2.36620000000039,2.387400000003254,2.4086000000024796,2.431400000001304,2.454700000002049,2.470100000002276,2.500400000000809,2.5240000000012515,2.543500000003405,2.566400000003341,2.591100000001461,2.614900000000489,2.6392000000014377,2.652799999999843,2.672100000003411,2.7062000000005355,2.725700000002689,2.7494000000006054,2.7727000000013504,2.7959000000009837,2.8203000000030443,2.8430000000007567,2.8663000000015018,2.889600000002247,2.913300000000163,2.9343000000008033,2.9645000000018626,2.9813000000031025,2.9922000000005937,3.013700000003155,3.0437000000019907,3.0657000000028347,3.0892000000021653,3.111000000000786,3.122300000002724,3.1630000000004657,3.1692000000002736,3.192300000002433,3.226300000002084,3.246500000001106,3.2666000000026543,3.2880000000004657,3.313000000001921,3.3348000000005413,3.3584000000009837,3.3817000000017288,3.4069000000017695,3.4310000000004948,3.4535000000032596,3.469600000000355,3.5064000000020314,3.526499999999942,3.549300000002404,3.5733000000000175,3.595900000000256,3.618900000001304,3.6385000000009313,3.6653000000005704,3.687400000002526,3.709900000001653]",3.7647,,3.7647,3.7647,"[0,-0.6]",,3.7647,2.0843,3.7647,"[0.5,0.7]",1.6804,1.3773,0.3031,2.0843,Acepta,0,0,1,1,1,1,6,19,Train,Otro,5,3,25,10,,,,,,,,,,,,,,,,,,,,,,,,
,,,,,,,,,,,,,15434288,2021-04-21_09h59.00.508,DictadorBinary,2021.1.4,Linux armv7l,60.07449237,0.820370546,-0.742737076,1,0,0,partition_image,Otro,"[0.8203705456792092,0.8203705456792092,0.8203705456792092,0.8203705456792092,0.8203705456792092,0.8203705456792092,0.8203705456792092,0.8203705456792092,0.8203705456792092,0.8203705456792092,0.8203705456792092,0.8203705456792092,0.8203705456792092,0.8203705456792092,0.8203705456792092,0.8203705456792092,0.8203705456792092,0.8203705456792092,0.8203705456792092,0.8203705456792092,0.8203705456792092,0.8203705456792092,0.8203705456792092,0.8203705456792092,0.8203705456792092,0.8203705456792092,0.8203705456792092,0.8203705456792092,0.8203705456792092,0.8203705456792092,0.8203705456792092,0.8203705456792092,0.8203705456792092,0.8203705456792092,0.8203705456792092,0.8203705456792092,0.8203705456792092,0.8203705456792092,0.8203705456792092,0.8203705456792092,0.8203705456792092,0.8203705456792092,0.8203705456792092,0.8203705456792092,0.8203705456792092,0.8203705456792092,0.8203705456792092,0.8203705456792092,0.8203705456792092,0.8203705456792092,0.8203705456792092,0.8203705456792092,0.8203705456792092,0.8203705456792092,0.8203705456792092,0.8203705456792092,0.05740742586096939,0.05740742586096939,0.059259282326211735,0.06851856465242347,0.07222227758290817,0.07777772241709184,0.08333329181281887,0.08888886120854592,0.09444443060427296,0.09814814353475765,0.10370371293048469,0.10925928232621174,0.11111113879145408,0.11296287069515307,0.11481485172193878,0.11666658362563775,0.12037029655612246,0.12592599051339284,0.13148143534757653,0.13518514827806122,0.1388888612085459,0.14259257413903062,0.14259257413903062,0.14444443060427295,0.1462962870695153,0.15185185646524235,0.15555556939572704,0.16111113879145408,0.16481485172193877,0.16666658362563774,0.17222227758290817,0.17592599051339286,0.17777772241709183,0.1796295788823342,0.1796295788823342,0.18148143534757652,0.18148143534757652,0.18148143534757652,0.18333329181281888,0.18518514827806123,0.18703700474330356,0.18888886120854592,0.1925925741390306,0.1925925741390306,0.19444443060427297,0.1962962870695153,0.1962962870695153,0.2,0.2037037129304847,0.20555556939572703,0.20740742586096939,0.20925928232621174,0.21111113879145407,0.21296287069515307,0.2148148517219388,0.21666658362563776,0.21666658362563776,0.21851856465242347,0.21851856465242347,0.22037029655612245,0.22222227758290816,0.22222227758290816,0.22407400948660713,0.22592599051339285,0.22592599051339285,0.22777772241709185,0.22962957888233418,0.23148143534757654,0.23518514827806122,0.2388888612085459,0.24259257413903063,0.25,0.2574074258609694,0.26851856465242346,0.28333329181281885,0.3037037129304847,0.3203702965561224,0.35185185646524236,0.3833332918128189,0.4166667081871811,0.44814826809630104,0.4722221530213648,0.49814826809630103,0.512962870695153,0.5222221530213648,0.5296295788823342]","[-0.7427370761303191,-0.7427370761303191,-0.7427370761303191,-0.7427370761303191,-0.7427370761303191,-0.7427370761303191,-0.7427370761303191,-0.7427370761303191,-0.7427370761303191,-0.7427370761303191,-0.7427370761303191,-0.7427370761303191,-0.7427370761303191,-0.7427370761303191,-0.7427370761303191,-0.7427370761303191,-0.7427370761303191,-0.7427370761303191,-0.7427370761303191,-0.7427370761303191,-0.7427370761303191,-0.7427370761303191,-0.7427370761303191,-0.7427370761303191,-0.7427370761303191,-0.7427370761303191,-0.7427370761303191,-0.7427370761303191,-0.7427370761303191,-0.7427370761303191,-0.7427370761303191,-0.7427370761303191,-0.7427370761303191,-0.7427370761303191,-0.7427370761303191,-0.7427370761303191,-0.7427370761303191,-0.7427370761303191,-0.7427370761303191,-0.7427370761303191,-0.7427370761303191,-0.7427370761303191,-0.7427370761303191,-0.7427370761303191,-0.7427370761303191,-0.7427370761303191,-0.7427370761303191,-0.7427370761303191,-0.7427370761303191,-0.7427370761303191,-0.7427370761303191,-0.7427370761303191,-0.7427370761303191,-0.7427370761303191,-0.7427370761303191,-0.7427370761303191,-0.6024427914450354,-0.6024427914450354,-0.5947203291223404,-0.5664039990580674,-0.5535329399379433,-0.5342264378324468,-0.5123455507535462,-0.48917781748670214,-0.4737325465425532,-0.45828727559840426,-0.44412919714095744,-0.42224848321143615,-0.4119516359153369,-0.39908057679521275,-0.38620960424977835,-0.36432880374556736,-0.34759651346409576,-0.31541895223847516,-0.2935382383089539,-0.2806671791888298,-0.26650901415669326,-0.2549250609485816,-0.2536381281859486,-0.24848961796320923,-0.24462821365248227,-0.23690566475509753,-0.2304703083444149,-0.2188863551363032,-0.21245073900155143,-0.20215389170545212,-0.19314415032136525,-0.18156028368794327,-0.17641186003989362,-0.16997641705452127,-0.16611501274379434,-0.1622536950077571,-0.1609667622451241,-0.15710535793439717,-0.15453114611037233,-0.14809561655031028,-0.14552149130097516,-0.14166008699024824,-0.1377988558289007,-0.13651166334219858,-0.13393753809286346,-0.13007622035682623,-0.1287890278701241,-0.12621498919547872,-0.12106639239804964,-0.11720507466201241,-0.11463103598736703,-0.11205673758865248,-0.10948252576462766,-0.10819541985261524,-0.10562112145390071,-0.10304708277925533,-0.1017598902925532,-0.1004728709552305,-0.09918576504321809,-0.09661146664450354,-0.0927501489084663,-0.09146321614583333,-0.0888889177471188,-0.08631461934840426,-0.08631461934840426,-0.08374049409906915,-0.0811661957003546,-0.0785920704510195,-0.07344364680296986,-0.0670081172429078,-0.059285481770833336,-0.043840297401374115,-0.016811073249113476,0.02051482504986702,0.06685055130762411,0.12090882646276596,0.160809023160461,0.22516414561170212,0.28565803690159575,0.3448647357047872,0.40535854041999114,0.4465458430296986,0.5031783732962101,0.5520882680906471,0.5932755707003546,0.6215918141899379]","[1,1,0,0,0,0,0,0,0,0,0,0,0,0,0,0,0,0,0,0,0,0,0,0,0,0,0,0,0,0,0,0,0,0,0,0,0,0,0,0,0,0,0,0,0,0,0,0,0,0,0,0,0,0,0,0,1,1,1,1,1,1,1,1,1,1,1,1,1,1,1,1,1,1,1,1,1,1,1,1,1,1,1,1,1,1,1,1,1,1,1,1,1,1,1,1,1,1,1,1,1,1,1,1,1,1,1,1,1,1,1,1,1,1,1,1,1,1,1,1,1,1,1,1,1,1,1,1,1,1,1,1,1,1,1,1,1,1,1,1,1,1]","[0,0,0,0,0,0,0,0,0,0,0,0,0,0,0,0,0,0,0,0,0,0,0,0,0,0,0,0,0,0,0,0,0,0,0,0,0,0,0,0,0,0,0,0,0,0,0,0,0,0,0,0,0,0,0,0,0,0,0,0,0,0,0,0,0,0,0,0,0,0,0,0,0,0,0,0,0,0,0,0,0,0,0,0,0,0,0,0,0,0,0,0,0,0,0,0,0,0,0,0,0,0,0,0,0,0,0,0,0,0,0,0,0,0,0,0,0,0,0,0,0,0,0,0,0,0,0,0,0,0,0,0,0,0,0,0,0,0,0,0,0,0]","[0,0,0,0,0,0,0,0,0,0,0,0,0,0,0,0,0,0,0,0,0,0,0,0,0,0,0,0,0,0,0,0,0,0,0,0,0,0,0,0,0,0,0,0,0,0,0,0,0,0,0,0,0,0,0,0,0,0,0,0,0,0,0,0,0,0,0,0,0,0,0,0,0,0,0,0,0,0,0,0,0,0,0,0,0,0,0,0,0,0,0,0,0,0,0,0,0,0,0,0,0,0,0,0,0,0,0,0,0,0,0,0,0,0,0,0,0,0,0,0,0,0,0,0,0,0,0,0,0,0,0,0,0,0,0,0,0,0,0,0,0,0]","[0,0.008700000002136221,0.03139999999984866,0.06290000000080909,0.08060000000114087,0.09280000000217115,0.11330000000089058,0.13260000000082073,0.1529000000009546,0.17000000000189175,0.1893999999992957,0.20900000000256114,0.22929999999905704,0.24790000000211876,0.2691000000013446,0.288300000000163,0.3073000000003958,0.33720000000175787,0.3506000000015774,0.36779999999998836,0.38660000000163564,0.4190999999991618,0.4331999999994878,0.45050000000264845,0.4691000000020722,0.486800000002404,0.5073000000011234,0.5264999999999418,0.546200000000681,0.5662000000011176,0.5974999999998545,0.6193000000021129,0.63379999999961,0.651400000002468,0.6857000000018161,0.7070999999996275,0.7181000000018685,0.7377000000014959,0.7570000000014261,0.7769000000007509,0.7963000000017928,0.8146000000015192,0.8362999999990279,0.854299999999057,0.8748000000014144,0.8937000000005355,0.9134000000012747,0.9325000000026193,0.9523000000008324,0.9701000000022759,1.0005999999993946,1.0169000000023516,1.0417000000015832,1.0540000000000873,1.074400000001333,1.0936000000001513,1.130700000001525,1.1460000000006403,1.209100000000035,1.2430999999996857,1.2560000000012224,1.2855000000017753,1.3122000000003027,1.3309000000008382,1.3456000000005588,1.364000000001397,1.3834999999999127,1.4114000000008673,1.4324000000015076,1.4553000000014435,1.4786999999996624,1.4997000000003027,1.5168000000012398,1.5476000000016938,1.5715000000018335,1.5940000000009604,1.616600000001199,1.6419999999998254,1.6540999999997439,1.6889000000010128,1.711299999999028,1.7353000000002794,1.7507000000005064,1.7800000000024738,1.802400000000489,1.8274000000019441,1.8489000000008673,1.8797000000013213,1.8987000000015541,1.9215000000003783,1.944500000001426,1.9655999999995402,1.9880000000011933,2.01050000000032,2.032600000002276,2.063300000001618,2.082300000001851,2.107899999999063,2.1309000000001106,2.153200000000652,2.1762999999991735,2.198599999999715,2.210800000000745,2.2314000000005763,2.263600000002043,2.2880000000004657,2.3119000000006054,2.3355000000010477,2.359500000002299,2.3804000000018277,2.402700000002369,2.42699999999968,2.448100000001432,2.466100000001461,2.4825000000018917,2.5126000000018394,2.53610000000117,2.5570000000006985,2.58009999999922,2.6023999999997613,2.6146000000007916,2.6362000000008265,2.6696000000010827,2.6906999999991967,2.711800000000949,2.736700000001292,2.759200000000419,2.7841000000007625,2.807700000001205,2.8317000000024564,2.8539999999993597,2.877100000001519,2.900100000002567,2.923900000001595,2.946700000000419,2.9707000000016706,2.9936000000016065,3.017100000000937,3.040899999999965,3.063300000001618,3.0864000000001397,3.108700000000681]",3.1577,,3.1577,3.1577,"[0,-0.6]",,3.1577,1.195,3.1577,"[0.5,0.7]",1.9627,0.1849,1.7778,1.195,Acepta,0,0,2,2,2,1,13,12,Train,Otro,5,3,25,10,,,,,,,,,,,,,,,,,,,,,,,,
,,,,,,,,,,,,,15434288,2021-04-21_09h59.00.508,DictadorBinary,2021.1.4,Linux armv7l,60.07449237,0.833333167,-0.826398701,1,0,0,partition_image,Otro,"[0.8333331672512755,0.8333331672512755,0.8333331672512755,0.8333331672512755,0.8333331672512755,0.8333331672512755,0.8333331672512755,0.8333331672512755,0.8333331672512755,0.8333331672512755,0.8333331672512755,0.8333331672512755,0.8333331672512755,0.8333331672512755,0.8333331672512755,0.8333331672512755,0.8333331672512755,0.8333331672512755,0.8333331672512755,0.8333331672512755,0.8333331672512755,0.8333331672512755,0.8333331672512755,0.8333331672512755,0.8333331672512755,0.8333331672512755,0.8333331672512755,0.8333331672512755,0.8333331672512755,0.8333331672512755,0.8333331672512755,0.8333331672512755,0.8333331672512755,0.8333331672512755,0.8333331672512755,0.8333331672512755,0.8333331672512755,0.8333331672512755,0.8333331672512755,0.8333331672512755,0.8333331672512755,0.8333331672512755,0.8333331672512755,0.8333331672512755,0.8333331672512755,0.8333331672512755,0.8333331672512755,0.018518502371651785,0.018518502371651785,0.018518502371651785,0.018518502371651785,0.018518502371651785,0.018518502371651785,0.018518502371651785,0.018518502371651785,0.018518502371651785,0.018518502371651785,0.018518502371651785,0.018518502371651785,0.018518502371651785,0.018518502371651785,0.018518502371651785,0.018518502371651785,0.018518502371651785,0.018518502371651785,0.018518502371651785,0.018518502371651785,0.018518502371651785,0.018518502371651785,0.018518502371651785,0.018518502371651785,0.018518502371651785,0.018518502371651785,0.018518502371651785,0.033333291812818876,0.05740742586096939,0.07592599051339285,0.10925928232621174,0.14814814353475766,0.18518514827806123,0.2037037129304847,0.22777772241709185,0.24814814353475764,0.2574074258609694,0.27037029655612244,0.2814814353475765,0.2907407176737883,0.3203702965561224,0.36111113879145407,0.4148147271603954]","[-0.8263987006870568,-0.8263987006870568,-0.8263987006870568,-0.8263987006870568,-0.8263987006870568,-0.8263987006870568,-0.8263987006870568,-0.8263987006870568,-0.8263987006870568,-0.8263987006870568,-0.8263987006870568,-0.8263987006870568,-0.8263987006870568,-0.8263987006870568,-0.8263987006870568,-0.8263987006870568,-0.8263987006870568,-0.8263987006870568,-0.8263987006870568,-0.8263987006870568,-0.8263987006870568,-0.8263987006870568,-0.8263987006870568,-0.8263987006870568,-0.8263987006870568,-0.8263987006870568,-0.8263987006870568,-0.8263987006870568,-0.8263987006870568,-0.8263987006870568,-0.8263987006870568,-0.8263987006870568,-0.8263987006870568,-0.8263987006870568,-0.8263987006870568,-0.8263987006870568,-0.8263987006870568,-0.8263987006870568,-0.8263987006870568,-0.8263987006870568,-0.8263987006870568,-0.8263987006870568,-0.8263987006870568,-0.8263987006870568,-0.8263987006870568,-0.8263987006870568,-0.8263987006870568,-0.5792750581781915,-0.5792750581781915,-0.5792750581781915,-0.5792750581781915,-0.5792750581781915,-0.5792750581781915,-0.5792750581781915,-0.5792750581781915,-0.5792750581781915,-0.5792750581781915,-0.5792750581781915,-0.5792750581781915,-0.5792750581781915,-0.5792750581781915,-0.5792750581781915,-0.5792750581781915,-0.5792750581781915,-0.5792750581781915,-0.5792750581781915,-0.5792750581781915,-0.5792750581781915,-0.5792750581781915,-0.5792750581781915,-0.5792750581781915,-0.5792750581781915,-0.5792750581781915,-0.5728394420434397,-0.5265038023603723,-0.4685841228945035,-0.41967427138741137,-0.3282900113585993,-0.2188863551363032,-0.10690831394060284,-0.03740476784131206,0.05784080992353723,0.15952191724844858,0.2560546875,0.34357762979277484,0.4169424936281028,0.4516942666777482,0.5173364950410018,0.5791174056682181,0.6421854438511192]","[1,0,0,0,0,0,0,0,0,0,0,0,0,0,0,0,0,0,0,0,0,0,0,0,0,0,0,0,0,0,0,0,0,0,0,0,0,0,0,0,0,0,0,0,0,0,0,1,1,1,1,1,1,1,1,1,1,1,1,1,1,1,1,1,1,1,1,1,1,1,1,1,1,1,1,1,1,1,1,1,1,1,1,1,1,1,1,1,1,1]","[0,0,0,0,0,0,0,0,0,0,0,0,0,0,0,0,0,0,0,0,0,0,0,0,0,0,0,0,0,0,0,0,0,0,0,0,0,0,0,0,0,0,0,0,0,0,0,0,0,0,0,0,0,0,0,0,0,0,0,0,0,0,0,0,0,0,0,0,0,0,0,0,0,0,0,0,0,0,0,0,0,0,0,0,0,0,0,0,0,0]","[0,0,0,0,0,0,0,0,0,0,0,0,0,0,0,0,0,0,0,0,0,0,0,0,0,0,0,0,0,0,0,0,0,0,0,0,0,0,0,0,0,0,0,0,0,0,0,0,0,0,0,0,0,0,0,0,0,0,0,0,0,0,0,0,0,0,0,0,0,0,0,0,0,0,0,0,0,0,0,0,0,0,0,0,0,0,0,0,0,0]","[0.00009999999747378752,0.009099999999307329,0.03139999999984866,0.04650000000037835,0.0717000000004191,0.09059999999954016,0.11059999999997672,0.13880000000062864,0.14979999999923166,0.16809999999895808,0.18460000000050059,0.20209999999860884,0.21899999999732245,0.23949999999967986,0.2687000000005355,0.2831999999980326,0.29980000000068685,0.3161999999974796,0.3330999999998312,0.35199999999895226,0.3757000000005064,0.38580000000001746,0.40429999999832944,0.4356999999981781,0.4495999999999185,0.4657999999981257,0.4951999999975669,0.5056000000004133,0.5370000000002619,0.5573999999978696,0.5687999999972817,0.5880999999972119,0.6176999999988766,0.6332999999976892,0.6584000000002561,0.6699999999982538,0.6905000000006112,0.719199999999546,0.7327000000004773,0.754399999997986,0.7720999999983178,0.7916000000004715,0.810299999997369,0.8315000000002328,0.8603000000002794,0.8843999999990046,0.8993999999984226,0.9369000000006054,0.9520999999986088,1.02639999999883,1.0541999999986729,1.0848000000005413,1.1077000000004773,1.1306000000004133,1.1568999999981315,1.1775999999990745,1.1974999999983993,1.2163000000000466,1.2390999999988708,1.2586999999984982,1.2799999999988358,1.3016999999999825,1.322199999998702,1.3436000000001513,1.3549999999995634,1.3888999999981024,1.4110000000000582,1.4241000000001804,1.455500000000029,1.4782999999988533,1.4909000000006927,1.5110999999997148,1.5360000000000582,1.555000000000291,1.5900999999976193,1.6110999999982596,1.6347999999998137,1.65849999999773,1.680499999998574,1.70509999999922,1.726699999999255,1.7511999999987893,1.7755999999972119,1.798899999997957,1.8209999999999127,1.84599999999773,1.867999999998574,1.8920999999972992,1.914199999999255,1.9375]",1.9896,,1.9896,1.9896,"[0,-0.6]",,1.9896,1.0044,1.9896,"[0.5,0.7]",0.9852,0.6589,0.3263,1.0044,Acepta,0,0,3,3,3,1,19,6,Train,Otro,5,3,25,10,,,,,,,,,,,,,,,,,,,,,,,,
