Mouse_Instructions.x,Mouse_Instructions.y,Mouse_Instructions.leftButton,Mouse_Instructions.midButton,Mouse_Instructions.rightButton,Mouse_Instructions.clicked_name,instruccioness.thisRepN,instruccioness.thisTrialN,instruccioness.thisN,instruccioness.thisIndex,instruccioness.ran,Instrucciones,Texto,Cedula,date,expName,psychopyVersion,OS,frameRate,partition_mouse.x,partition_mouse.y,partition_mouse.leftButton,partition_mouse.midButton,partition_mouse.rightButton,partition_mouse.clicked_name,rolotro,tracking_2.x,tracking_2.y,tracking_2.leftButton,tracking_2.midButton,tracking_2.rightButton,tracking_2.time,tracking_2.stopped,tracking_2.startedR,tracking_2.stoppedR,start_region_2.stopped,start_region_2.pos,Question_2.started,Question_2.stopped,O0.startedR,O0.stoppedR,O0_choiceR.pos,Total_Time,Resp_Time,Mov_Time,Time_to_start,Choice,liftedFinger,Trainingg.thisRepN,Trainingg.thisTrialN,Trainingg.thisN,Trainingg.thisIndex,Trainingg.ran,Ud,Otro,Type,Rol_otro,Otro_transf,Multiplicador,Ud_manos,fichas_base,fin_entrenamiento_mouse.x,fin_entrenamiento_mouse.y,fin_entrenamiento_mouse.leftButton,fin_entrenamiento_mouse.midButton,fin_entrenamiento_mouse.rightButton,fin_entrenamiento_mouse.clicked_name,mouse2.x,mouse2.y,mouse2.leftButton,mouse2.midButton,mouse2.rightButton,mouse2.clicked_name,trials.thisRepN,trials.thisTrialN,trials.thisN,trials.thisIndex,trials.ran,trials_2.thisRepN,trials_2.thisTrialN,trials_2.thisN,trials_2.thisIndex,trials_2.ran,TextoR,Pregunta
0.818518575,-0.818283234,1,0,0,next_button,0,0,0,0,1,1,"Imagine que usted y otra persona reciben cada uno 10 fichas. Cada una vale $3.000 pesos. 

Oprima la flecha para continuar.",24140533,2021-04-21_13h36.19.205,DictadorBinary,2021.1.4,Linux armv7l,60.06366749,,,,,,,,,,,,,,,,,,,,,,,,,,,,,,,,,,,,,,,,,,,,,,,,,,,,,,,,,,,,,,,,,,
0.83703715,-0.799331104,1,0,0,next_button,0,1,1,1,1,2,"La otra persona le puede transferir a usted de 0 a 10 fichas. Esas fichas se triplican una vez se transfieren a usted.

Oprima la flecha para continuar",24140533,2021-04-21_13h36.19.205,DictadorBinary,2021.1.4,Linux armv7l,60.06366749,,,,,,,,,,,,,,,,,,,,,,,,,,,,,,,,,,,,,,,,,,,,,,,,,,,,,,,,,,,,,,,,,,
0.824074131,-0.79264214,1,0,0,next_button,0,2,2,2,1,3,"Por ejemplo, si la otra persona le transfiere 2 fichas, se convierten en 6 fichas (2x3). Así, usted tendría en sus manos 16 fichas en total.

Oprima la flecha para continuar",24140533,2021-04-21_13h36.19.205,DictadorBinary,2021.1.4,Linux armv7l,60.06366749,,,,,,,,,,,,,,,,,,,,,,,,,,,,,,,,,,,,,,,,,,,,,,,,,,,,,,,,,,,,,,,,,,
0.805555556,-0.800446067,1,0,0,next_button,0,3,3,3,1,4,"Su tarea es dividir las fichas que quedan en sus manos entre los dos.

Oprima la flecha para continuar",24140533,2021-04-21_13h36.19.205,DictadorBinary,2021.1.4,Linux armv7l,60.06366749,,,,,,,,,,,,,,,,,,,,,,,,,,,,,,,,,,,,,,,,,,,,,,,,,,,,,,,,,,,,,,,,,,
0.759259372,-0.801560826,1,0,0,next_button,0,4,4,4,1,5,"Ninguno sabe el nombre del otro. 

Oprima la flecha para continuar.",24140533,2021-04-21_13h36.19.205,DictadorBinary,2021.1.4,Linux armv7l,60.06366749,,,,,,,,,,,,,,,,,,,,,,,,,,,,,,,,,,,,,,,,,,,,,,,,,,,,,,,,,,,,,,,,,,
0.777777778,-0.787068141,1,0,0,next_button,0,5,5,5,1,6,"En cada turno, muevase al cuadro inferior para que aparezcan las cantidades. Desplacese a la cantidad que le daria al OTRO. 

Oprima la flecha para continuar.",24140533,2021-04-21_13h36.19.205,DictadorBinary,2021.1.4,Linux armv7l,60.06366749,,,,,,,,,,,,,,,,,,,,,,,,,,,,,,,,,,,,,,,,,,,,,,,,,,,,,,,,,,,,,,,,,,
0.775926039,-0.816053512,1,0,0,next_button,0,6,6,6,1,7,"Si esta en su celular o una tableta, desplace su dedo por la pantalla mientras escoge.

Oprima la flecha para continuar.",24140533,2021-04-21_13h36.19.205,DictadorBinary,2021.1.4,Linux armv7l,60.06366749,,,,,,,,,,,,,,,,,,,,,,,,,,,,,,,,,,,,,,,,,,,,,,,,,,,,,,,,,,,,,,,,,,
0.816666667,-0.795986622,1,0,0,next_button,0,7,7,7,1,8,"Empecemos con un entrenamiento corto para familiarizarse. 

Oprima la flecha para continuar.",24140533,2021-04-21_13h36.19.205,DictadorBinary,2021.1.4,Linux armv7l,60.06366749,,,,,,,,,,,,,,,,,,,,,,,,,,,,,,,,,,,,,,,,,,,,,,,,,,,,,,,,,,,,,,,,,,
,,,,,,,,,,,,,24140533,2021-04-21_13h36.19.205,DictadorBinary,2021.1.4,Linux armv7l,60.06366749,0.777777778,-0.809364548,1,0,0,partition_image,Otro,"[0.7777777777777778,0.8,0.8,0.8018519083658854,0.8018519083658854,0.8018519083658854,0.8018519083658854,0.8018519083658854,0.8018519083658854,0.8018519083658854,0.8018519083658854,0.8018519083658854,0.8018519083658854,0.8018519083658854,0.8018519083658854,0.8018519083658854,0.8018519083658854,0.8018519083658854,0.8018519083658854,0.8018519083658854,0.8018519083658854,0.8018519083658854,0.8018519083658854,0.8018519083658854,0.8018519083658854,0.8018519083658854,0.8018519083658854,0.8018519083658854,0.8018519083658854,0.8018519083658854,0.8018519083658854,0.8018519083658854,0.8018519083658854,0.8018519083658854,0.8018519083658854,0.8018519083658854,0.8018519083658854,0.8018519083658854,0.8018519083658854,0.8018519083658854,0.8018519083658854,0.8018519083658854,0.8018519083658854,0.8018519083658854,0.8018519083658854,0.8018519083658854,0.8018519083658854,0.8018519083658854,0.8018519083658854,0.8018519083658854,0.8018519083658854,0.8018519083658854,0.8018519083658854,0.8018519083658854,0.8018519083658854,0.8018519083658854,0.8018519083658854,0.8018519083658854,0.8018519083658854,0.8018519083658854,0.8018519083658854,0.8018519083658854,0.8018519083658854,0.8018519083658854,0.8018519083658854,0.8018519083658854,0.8018519083658854,0.8018519083658854,0.8018519083658854,0.8018519083658854,0.8018519083658854,0.8018519083658854,0.8018519083658854,0.8018519083658854,0.8018519083658854,0.8018519083658854,0.8018519083658854,0.8018519083658854,0.8018519083658854,0.8018519083658854,0.8018519083658854,0.8018519083658854,0.8018519083658854,0.8018519083658854,0.8018519083658854,0.8018519083658854,0.8018519083658854,0.8018519083658854,0.8018519083658854,0.8018519083658854,0.8018519083658854,0.8018519083658854,0.8018519083658854,0.8018519083658854,0.8018519083658854,0.8018519083658854,0.8018519083658854,0.8018519083658854,0.8018519083658854,0.8018519083658854,0.8018519083658854,0.8018519083658854,0.8018519083658854,0.8018519083658854,0.8018519083658854,0.8018519083658854,0.8018519083658854,0.8018519083658854,0.8018519083658854,0.8018519083658854,0.8018519083658854,0.8018519083658854,0.8018519083658854,0.8018519083658854,0.8018519083658854,0.8018519083658854,0.8018519083658854,0.8018519083658854,0.8018519083658854,0.8018519083658854,0.8018519083658854,0.8018519083658854,0.8018519083658854,0.8018519083658854,0.8018519083658854,0.8018519083658854,0.8018519083658854,0.8018519083658854,0.8018519083658854,0.8018519083658854,0.8018519083658854,0.8018519083658854,0.8018519083658854,0.8018519083658854,0.8018519083658854,0.8018519083658854,0.8018519083658854,0.8018519083658854,0.8018519083658854,0.8018519083658854,0.8018519083658854,0.8018519083658854,0.8018519083658854,0.8018519083658854,0.8018519083658854,0.8018519083658854,0.8018519083658854,0.8018519083658854,0.8018519083658854,0.8018519083658854,0.8018519083658854,0.8018519083658854,0.8018519083658854,0.8018519083658854,0.8018519083658854,0.8018519083658854,0.8018519083658854,0.8018519083658854,0.8018519083658854,0.8018519083658854,0.8018519083658854,0.8018519083658854,0.8018519083658854,0.8018519083658854,0.8018519083658854,0.8018519083658854,0.8018519083658854,0.8018519083658854,0.8018519083658854,0.8018519083658854,0.8018519083658854,0.8018519083658854,0.8018519083658854,0.8018519083658854,0.8018519083658854,0.8018519083658854,0.8018519083658854,0.8018519083658854,0.8018519083658854,0.8018519083658854,0.8018519083658854,0.8018519083658854,0.8018519083658854,0.8018519083658854,0.8018519083658854,0.8018519083658854,0.8018519083658854,0.8018519083658854,0.8018519083658854,0.8018519083658854,0.8018519083658854,0.8018519083658854,0.8018519083658854,0.8018519083658854,0.8018519083658854,0.8018519083658854,0.8018519083658854,0.8018519083658854,0.8018519083658854,0.8018519083658854,0.8018519083658854,0.8018519083658854,0.8018519083658854,0.8018519083658854,0.8018519083658854,0.8018519083658854,0.8018519083658854,0.8018519083658854,0.8018519083658854,0.8018519083658854,0.8018519083658854,0.8018519083658854,0.8018519083658854,0.8018519083658854,0.8018519083658854,0.8018519083658854,0.8018519083658854,0.8018519083658854,0.8018519083658854,0.8018519083658854,0.8018519083658854,0.8018519083658854,0.8018519083658854,0.8018519083658854,0.8018519083658854,0.8018519083658854,0.8018519083658854,0.8018519083658854,0.8018519083658854,0.8018519083658854,0.8018519083658854,0.8018519083658854,0.8018519083658854,0.8018519083658854,0.8018519083658854,0.8018519083658854,0.8018519083658854,0.8018519083658854,0.8018519083658854,0.8018519083658854,0.8018519083658854,0.8018519083658854,0.8018519083658854,0.8018519083658854,0.8018519083658854,0.8018519083658854,0.8018519083658854,0.8018519083658854,0.8018519083658854,0.8018519083658854,0.8018519083658854,0.8018519083658854,0.8018519083658854,0.8018519083658854,0.8018519083658854,0.8018519083658854,0.8018519083658854,0.8018519083658854,0.8018519083658854,0.8018519083658854,0.8018519083658854,0.8018519083658854,0.8018519083658854,0.8018519083658854,0.8018519083658854,0.8018519083658854,0.8018519083658854,0.8018519083658854,0.8018519083658854,0.8018519083658854,0.8018519083658854,0.8018519083658854,0.8018519083658854,0.8018519083658854,0.8018519083658854,0.8018519083658854,0.8018519083658854,0.8018519083658854,0.8018519083658854,0.8018519083658854,0.8018519083658854,0.8018519083658854,0.8018519083658854,0.8018519083658854,0.8018519083658854,-0.08333333333333333,-0.08333333333333333,-0.08333333333333333,-0.08333333333333333,-0.08333333333333333,-0.08333333333333333,-0.08333333333333333,-0.08333333333333333,-0.08333333333333333,-0.08333333333333333,-0.08333333333333333,-0.08333333333333333,-0.08333333333333333,-0.08333333333333333,-0.08333333333333333,-0.08333333333333333,-0.08333333333333333,-0.08333333333333333,-0.08333333333333333,-0.08333333333333333,-0.08333333333333333,-0.08333333333333333,-0.08333333333333333,-0.08333333333333333,-0.08333333333333333,-0.08333333333333333,-0.08333333333333333,-0.08333333333333333,-0.08333333333333333,-0.08333333333333333,-0.08333333333333333,-0.08333333333333333,-0.08333333333333333,-0.08333333333333333,-0.08333333333333333,-0.08333333333333333,-0.08333333333333333,-0.08333333333333333,-0.08333333333333333,-0.08333333333333333,-0.08333333333333333,-0.08333333333333333,-0.08333333333333333,-0.08333333333333333,-0.08333333333333333,-0.08333333333333333,-0.08333333333333333,-0.08333333333333333,-0.08333333333333333,-0.08333333333333333,-0.08333333333333333,-0.08333333333333333,-0.08333333333333333,-0.08333333333333333,-0.08333333333333333,-0.08333333333333333,-0.08333333333333333,-0.08333333333333333,-0.08333333333333333,-0.08333333333333333,-0.08333333333333333,-0.08333333333333333,-0.08333333333333333,-0.08333333333333333,-0.08333333333333333,-0.08333333333333333,-0.08333333333333333,-0.08333333333333333,-0.08333333333333333,-0.08333333333333333,-0.08333333333333333,-0.08333333333333333,-0.08333333333333333,-0.08333333333333333,-0.08333333333333333,-0.08333333333333333,-0.08333333333333333,-0.08333333333333333,-0.08333333333333333,-0.08333333333333333,-0.08333333333333333,-0.08333333333333333,-0.08333333333333333,-0.08333333333333333,-0.08333333333333333,-0.08333333333333333,-0.08333333333333333,-0.08333333333333333,-0.08333333333333333,-0.08333333333333333,-0.08333333333333333,-0.08333333333333333,-0.08333333333333333,-0.08333333333333333,-0.08333333333333333,-0.08333333333333333,-0.08333333333333333,-0.08333333333333333,-0.08333333333333333,-0.08333333333333333,-0.08333333333333333,-0.08333333333333333,-0.08333333333333333,-0.08333333333333333,-0.08333333333333333,-0.08333333333333333,-0.08333333333333333,-0.08333333333333333,-0.08333333333333333,-0.08333333333333333,-0.08333333333333333,-0.08333333333333333,-0.08333333333333333,-0.08333333333333333,-0.08333333333333333,-0.08333333333333333,-0.08333333333333333,-0.08333333333333333,-0.08333333333333333,-0.08333333333333333,-0.08333333333333333,-0.08333333333333333,-0.08333333333333333,-0.08333333333333333,-0.08333333333333333,-0.08333333333333333,-0.08333333333333333,-0.08333333333333333,-0.08333333333333333,-0.08333333333333333,-0.08333333333333333,-0.08333333333333333,-0.08333333333333333,-0.08333333333333333,-0.08333333333333333,-0.08333333333333333,-0.08333333333333333,-0.08333333333333333,-0.08333333333333333,-0.08333333333333333,-0.08333333333333333,-0.08333333333333333,-0.08333333333333333,-0.08333333333333333,-0.08333333333333333,-0.08333333333333333,-0.08333333333333333,-0.08333333333333333,-0.08333333333333333,-0.08333333333333333,-0.08333333333333333,-0.08333333333333333,-0.08333333333333333,-0.08333333333333333,-0.08333333333333333,-0.08333333333333333,-0.08333333333333333,-0.08333333333333333,-0.08333333333333333,-0.08333333333333333,-0.08333333333333333,-0.08333333333333333,-0.08333333333333333,-0.08333333333333333,-0.08333333333333333,-0.08333333333333333,-0.08333333333333333,-0.08333333333333333,-0.08333333333333333,-0.08333333333333333,-0.08333333333333333,-0.08333333333333333,-0.08333333333333333,-0.08333333333333333,-0.08333333333333333,-0.08333333333333333,-0.08333333333333333,-0.08333333333333333,-0.08333333333333333,-0.08333333333333333,-0.08333333333333333,-0.08333333333333333,-0.08333333333333333,-0.08333333333333333,-0.08333333333333333,-0.08333333333333333,-0.08333333333333333,-0.08333333333333333,-0.08333333333333333,-0.08333333333333333,-0.08333333333333333,-0.08333333333333333,-0.08333333333333333,-0.08333333333333333,-0.08333333333333333,-0.08333333333333333,-0.08333333333333333,-0.08333333333333333,-0.08333333333333333,-0.08333333333333333,-0.08333333333333333,-0.08333333333333333,-0.08333333333333333,-0.08333333333333333,-0.08333333333333333,-0.08333333333333333,-0.08333333333333333,-0.08333333333333333,-0.08333333333333333,-0.08333333333333333,-0.08333333333333333,-0.08333333333333333,-0.08333333333333333,-0.08333333333333333,-0.08333333333333333,-0.08333333333333333,-0.08333333333333333,-0.08333333333333333,-0.08333333333333333,-0.08333333333333333,-0.08333333333333333,-0.08333333333333333,-0.08333333333333333,-0.08333333333333333,-0.08333333333333333,-0.08333333333333333,-0.08333333333333333,-0.08333333333333333,-0.08333333333333333,-0.08333333333333333,-0.08333333333333333,-0.08333333333333333,-0.08333333333333333,-0.08333333333333333,-0.08333333333333333,-0.08333333333333333,-0.08333333333333333,-0.08333333333333333,-0.08333333333333333,-0.08333333333333333,-0.08333333333333333,-0.08333333333333333,-0.08333333333333333,-0.08333333333333333,-0.08333333333333333,-0.08333333333333333,-0.08333333333333333,-0.08333333333333333,-0.08333333333333333,-0.08333333333333333,-0.08333333333333333,-0.08333333333333333,-0.08333333333333333,-0.08333333333333333,-0.08333333333333333,-0.08333333333333333,-0.08333333333333333,-0.08333333333333333,-0.08333333333333333,-0.08333333333333333,-0.08333333333333333,-0.08333333333333333,-0.08333333333333333,-0.08333333333333333,-0.08333333333333333,-0.08333333333333333,-0.08333333333333333,-0.08333333333333333,-0.08333333333333333,-0.08333333333333333,-0.08333333333333333,-0.08333333333333333,-0.08333333333333333,-0.08333333333333333,-0.08333333333333333,-0.08333333333333333,-0.08333333333333333,-0.08333333333333333,-0.08333333333333333,-0.08333333333333333,-0.08333333333333333,-0.08333333333333333,-0.08333333333333333,-0.08333333333333333,-0.08333333333333333,-0.08333333333333333,-0.08333333333333333,-0.08333333333333333,-0.08333333333333333,-0.08333333333333333,-0.08333333333333333,-0.08333333333333333,-0.08333333333333333,-0.08333333333333333,-0.08333333333333333,-0.08333333333333333,-0.08333333333333333,-0.08333333333333333,-0.08333333333333333,-0.08333333333333333,-0.08333333333333333,-0.08333333333333333,-0.08333333333333333,-0.08333333333333333,-0.08333333333333333,-0.08333333333333333,-0.08333333333333333,-0.08333333333333333,-0.08333333333333333,-0.08333333333333333,-0.08333333333333333,-0.08333333333333333,-0.08333333333333333,-0.08333333333333333,-0.08333333333333333,-0.08333333333333333,-0.08333333333333333,-0.08333333333333333,-0.08333333333333333,-0.08333333333333333,-0.08333333333333333,-0.08333333333333333,-0.08333333333333333,-0.08333333333333333,-0.08333333333333333,-0.08333333333333333,-0.08333333333333333,-0.08333333333333333,-0.08333333333333333,-0.08333333333333333,-0.08333333333333333,-0.08333333333333333,-0.08333333333333333,-0.08333333333333333,-0.08333333333333333,-0.08333333333333333,-0.08333333333333333,-0.08333333333333333,-0.08333333333333333,-0.08333333333333333,-0.08333333333333333,-0.08333333333333333,-0.08333333333333333,-0.08333333333333333,-0.08333333333333333,-0.08333333333333333,-0.08333333333333333,-0.08333333333333333,-0.08333333333333333,-0.08333333333333333,-0.08333333333333333,-0.08333333333333333,-0.08333333333333333,-0.08333333333333333,-0.08333333333333333,-0.08333333333333333,-0.08333333333333333,-0.08333333333333333,-0.08333333333333333,-0.08333333333333333,-0.08333333333333333,-0.08333333333333333,-0.08333333333333333,-0.08333333333333333,-0.08333333333333333,-0.08333333333333333,-0.08333333333333333,-0.08333333333333333,-0.08333333333333333,-0.08333333333333333,-0.08333333333333333,-0.08333333333333333,-0.08333333333333333,-0.08333333333333333,-0.08333333333333333,-0.08333333333333333,-0.08333333333333333,-0.08333333333333333,-0.08333333333333333,-0.08333333333333333,-0.08333333333333333,-0.08333333333333333,-0.08333333333333333,-0.08333333333333333,-0.08333333333333333,-0.08333333333333333,-0.08333333333333333,-0.08333333333333333,-0.08333333333333333,-0.08333333333333333,-0.08333333333333333,-0.08333333333333333,-0.08333333333333333,-0.08333333333333333,-0.08333333333333333,-0.08333333333333333,-0.08333333333333333,-0.08333333333333333,-0.08333333333333333,-0.08333333333333333,-0.08333333333333333,-0.08333333333333333,-0.08333333333333333,-0.08333333333333333,-0.08333333333333333,-0.08333333333333333,-0.08333333333333333,-0.08333333333333333,-0.08333333333333333,-0.08333333333333333,-0.08333333333333333,-0.08333333333333333,-0.08333333333333333,-0.08333333333333333,-0.08333333333333333,-0.08333333333333333,-0.08333333333333333,-0.08333333333333333,-0.08333333333333333,-0.08333333333333333,-0.08333333333333333,-0.08333333333333333,-0.08333333333333333,-0.08333333333333333,-0.08333333333333333,-0.08333333333333333,-0.08333333333333333,-0.08333333333333333,-0.08333333333333333,-0.08333333333333333,-0.08333333333333333,-0.08333333333333333,-0.08333333333333333,-0.08333333333333333,-0.08333333333333333,-0.08333333333333333,-0.08333333333333333,-0.08333333333333333,-0.08333333333333333,-0.08333333333333333,-0.08333333333333333,-0.08333333333333333,-0.08333333333333333,-0.08333333333333333,-0.08333333333333333,-0.08333333333333333,-0.08333333333333333,-0.08333333333333333,-0.08333333333333333,-0.08333333333333333,-0.08333333333333333,-0.08333333333333333,-0.08333333333333333,-0.08333333333333333,-0.08333333333333333,-0.08333333333333333,-0.08333333333333333,-0.08333333333333333,-0.08333333333333333,-0.08333333333333333,-0.08333333333333333,-0.08333333333333333,-0.08333333333333333,-0.08333333333333333,-0.08333333333333333,-0.08333333333333333,-0.08333333333333333,-0.08333333333333333,-0.08333333333333333,-0.08333333333333333,-0.08333333333333333,-0.08333333333333333,-0.08333333333333333,-0.08333333333333333,-0.08333333333333333,-0.08333333333333333,-0.08333333333333333,-0.08333333333333333,-0.08333333333333333,-0.08333333333333333,-0.08333333333333333,-0.08333333333333333,-0.08333333333333333,-0.08333333333333333,-0.08333333333333333,-0.08333333333333333,-0.08333333333333333,-0.08333333333333333,-0.08333333333333333,-0.08333333333333333,-0.08333333333333333,-0.08333333333333333,-0.08333333333333333,-0.08333333333333333,-0.08333333333333333,-0.08333333333333333,-0.08333333333333333,-0.08333333333333333,-0.08333333333333333,-0.08333333333333333,-0.08333333333333333,-0.08333333333333333,-0.07407404581705729,-0.07407404581705729,-0.07407404581705729,-0.06851849026150174,-0.06851849026150174,-0.06851849026150174,-0.06851849026150174,-0.06851849026150174,-0.06851849026150174,-0.06851849026150174,-0.06481475830078125,-0.06481475830078125,-0.06481475830078125,-0.06481475830078125,-0.06481475830078125,-0.06481475830078125,-0.06481475830078125,-0.06296293470594617,-0.06296293470594617,-0.06111111111111111,-0.06111111111111111,-0.0592592027452257,-0.0592592027452257,-0.0592592027452257,-0.0592592027452257,-0.0592592027452257,-0.0592592027452257,-0.0592592027452257,-0.0592592027452257,-0.0592592027452257,-0.0592592027452257,-0.0592592027452257,-0.0592592027452257,-0.0592592027452257,-0.0592592027452257,-0.057407379150390625,-0.057407379150390625,-0.057407379150390625,-0.057407379150390625,-0.05555555555555555,-0.05370364718967014,-0.05185182359483507,-0.05,-0.048148091634114584,-0.048148091634114584,-0.04259253607855903,-0.02962960137261285,-0.031481424967447914,-0.03703698052300347,-0.040740712483723955,-0.044444444444444446,-0.044444444444444446,-0.044444444444444446,-0.044444444444444446,-0.04629626803927951,-0.04629626803927951,-0.04629626803927951,-0.048148091634114584,-0.05,-0.05370364718967014,-0.05555555555555555,-0.057407379150390625,-0.06851849026150174,-0.08333333333333333,-0.1,-0.11481475830078125,-0.12962960137261284,-0.1388888888888889,-0.14444444444444443,-0.14814809163411458,-0.15185182359483507,-0.15740737915039063,-0.16481475830078124,-0.1703703138563368,-0.17777777777777778,-0.18333333333333332,-0.18888888888888888,-0.19444444444444445,-0.1981480916341146,-0.20185182359483506,-0.20555555555555555,-0.2111111111111111,-0.21481475830078126,-0.21851849026150175,-0.22407404581705728,-0.22592586941189235,-0.22962960137261285,-0.23333333333333334,-0.23703698052300348,-0.2388888888888889,-0.24259253607855902,-0.2462962680392795,-0.24814809163411458,-0.25185182359483504,-0.25370364718967015,-0.25740737915039064,-0.2592592027452257,-0.26296293470594617,-0.26481475830078127,-0.26666666666666666,-0.2703703138563368,-0.2722222222222222,-0.27592586941189234,-0.2777777777777778,-0.27962960137261283,-0.28148142496744794,-0.2833333333333333,-0.28703698052300347,-0.28888888888888886,-0.2925925784640842,-0.29444444444444445,-0.29814813401963974,-0.3,-0.30370368957519533,-0.3074073791503906,-0.30925924513075087,-0.31296293470594616,-0.31666666666666665,-0.320370356241862,-0.3240740458170573,-0.3277777777777778,-0.3333333333333333,-0.3351851569281684,-0.3388888888888889,-0.3425925784640842,-0.3462962680392795,-0.35,-0.3537036895751953,-0.3574073791503906,-0.3611111111111111,-0.3629629347059462,-0.36666666666666664,-0.37222222222222223,-0.3759259117974175,-0.37962960137261287,-0.3851851569281684,-0.39074071248372394,-0.39444444444444443,-0.3981481340196398,-0.4037036895751953,-0.4074073791503906,-0.4111111111111111,-0.41481480068630644,-0.41851849026150173,-0.4222222222222222,-0.42777777777777776,-0.4314814673529731,-0.4351851569281684,-0.440740712483724,-0.4444444444444444,-0.44814813401963977,-0.4537036895751953,-0.4592592451307509,-0.4629629347059462,-0.4685184902615017,-0.4722222222222222,-0.47592591179741756]","[-0.8093645484949833,-0.8338908830215301,-0.8338908830215301,-0.8350056421796613,-0.8350056421796613,-0.8361204013377926,-0.8361204013377926,-0.8361204013377926,-0.8361204013377926,-0.8361204013377926,-0.8361204013377926,-0.8361204013377926,-0.8361204013377926,-0.8361204013377926,-0.8361204013377926,-0.8361204013377926,-0.8361204013377926,-0.8361204013377926,-0.8361204013377926,-0.8361204013377926,-0.8361204013377926,-0.8361204013377926,-0.8361204013377926,-0.8361204013377926,-0.8361204013377926,-0.8361204013377926,-0.8361204013377926,-0.8361204013377926,-0.8361204013377926,-0.8361204013377926,-0.8361204013377926,-0.8361204013377926,-0.8361204013377926,-0.8361204013377926,-0.8361204013377926,-0.8361204013377926,-0.8361204013377926,-0.8361204013377926,-0.8361204013377926,-0.8361204013377926,-0.8361204013377926,-0.8361204013377926,-0.8361204013377926,-0.8361204013377926,-0.8361204013377926,-0.8361204013377926,-0.8361204013377926,-0.8361204013377926,-0.8361204013377926,-0.8361204013377926,-0.8361204013377926,-0.8361204013377926,-0.8361204013377926,-0.8361204013377926,-0.8361204013377926,-0.8361204013377926,-0.8361204013377926,-0.8361204013377926,-0.8361204013377926,-0.8361204013377926,-0.8361204013377926,-0.8361204013377926,-0.8361204013377926,-0.8361204013377926,-0.8361204013377926,-0.8361204013377926,-0.8361204013377926,-0.8361204013377926,-0.8361204013377926,-0.8361204013377926,-0.8361204013377926,-0.8361204013377926,-0.8361204013377926,-0.8361204013377926,-0.8361204013377926,-0.8361204013377926,-0.8361204013377926,-0.8361204013377926,-0.8361204013377926,-0.8361204013377926,-0.8361204013377926,-0.8361204013377926,-0.8361204013377926,-0.8361204013377926,-0.8361204013377926,-0.8361204013377926,-0.8361204013377926,-0.8361204013377926,-0.8361204013377926,-0.8361204013377926,-0.8361204013377926,-0.8361204013377926,-0.8361204013377926,-0.8361204013377926,-0.8361204013377926,-0.8361204013377926,-0.8361204013377926,-0.8361204013377926,-0.8361204013377926,-0.8361204013377926,-0.8361204013377926,-0.8361204013377926,-0.8361204013377926,-0.8361204013377926,-0.8361204013377926,-0.8361204013377926,-0.8361204013377926,-0.8361204013377926,-0.8361204013377926,-0.8361204013377926,-0.8361204013377926,-0.8361204013377926,-0.8361204013377926,-0.8361204013377926,-0.8361204013377926,-0.8361204013377926,-0.8361204013377926,-0.8361204013377926,-0.8361204013377926,-0.8361204013377926,-0.8361204013377926,-0.8361204013377926,-0.8361204013377926,-0.8361204013377926,-0.8361204013377926,-0.8361204013377926,-0.8361204013377926,-0.8361204013377926,-0.8361204013377926,-0.8361204013377926,-0.8361204013377926,-0.8361204013377926,-0.8361204013377926,-0.8361204013377926,-0.8361204013377926,-0.8361204013377926,-0.8361204013377926,-0.8361204013377926,-0.8361204013377926,-0.8361204013377926,-0.8361204013377926,-0.8361204013377926,-0.8361204013377926,-0.8361204013377926,-0.8361204013377926,-0.8361204013377926,-0.8361204013377926,-0.8361204013377926,-0.8361204013377926,-0.8361204013377926,-0.8361204013377926,-0.8361204013377926,-0.8361204013377926,-0.8361204013377926,-0.8361204013377926,-0.8361204013377926,-0.8361204013377926,-0.8361204013377926,-0.8361204013377926,-0.8361204013377926,-0.8361204013377926,-0.8361204013377926,-0.8361204013377926,-0.8361204013377926,-0.8361204013377926,-0.8361204013377926,-0.8361204013377926,-0.8361204013377926,-0.8361204013377926,-0.8361204013377926,-0.8361204013377926,-0.8361204013377926,-0.8361204013377926,-0.8361204013377926,-0.8361204013377926,-0.8361204013377926,-0.8361204013377926,-0.8361204013377926,-0.8361204013377926,-0.8361204013377926,-0.8361204013377926,-0.8361204013377926,-0.8361204013377926,-0.8361204013377926,-0.8361204013377926,-0.8361204013377926,-0.8361204013377926,-0.8361204013377926,-0.8361204013377926,-0.8361204013377926,-0.8361204013377926,-0.8361204013377926,-0.8361204013377926,-0.8361204013377926,-0.8361204013377926,-0.8361204013377926,-0.8361204013377926,-0.8361204013377926,-0.8361204013377926,-0.8361204013377926,-0.8361204013377926,-0.8361204013377926,-0.8361204013377926,-0.8361204013377926,-0.8361204013377926,-0.8361204013377926,-0.8361204013377926,-0.8361204013377926,-0.8361204013377926,-0.8361204013377926,-0.8361204013377926,-0.8361204013377926,-0.8361204013377926,-0.8361204013377926,-0.8361204013377926,-0.8361204013377926,-0.8361204013377926,-0.8361204013377926,-0.8361204013377926,-0.8361204013377926,-0.8361204013377926,-0.8361204013377926,-0.8361204013377926,-0.8361204013377926,-0.8361204013377926,-0.8361204013377926,-0.8361204013377926,-0.8361204013377926,-0.8361204013377926,-0.8361204013377926,-0.8361204013377926,-0.8361204013377926,-0.8361204013377926,-0.8361204013377926,-0.8361204013377926,-0.8361204013377926,-0.8361204013377926,-0.8361204013377926,-0.8361204013377926,-0.8361204013377926,-0.8361204013377926,-0.8361204013377926,-0.8361204013377926,-0.8361204013377926,-0.8361204013377926,-0.8361204013377926,-0.8361204013377926,-0.8361204013377926,-0.8361204013377926,-0.8361204013377926,-0.8361204013377926,-0.8361204013377926,-0.8361204013377926,-0.8361204013377926,-0.8361204013377926,-0.8361204013377926,-0.8361204013377926,-0.8361204013377926,-0.8361204013377926,-0.8361204013377926,-0.8361204013377926,-0.8361204013377926,-0.8361204013377926,-0.8361204013377926,-0.8361204013377926,-0.8361204013377926,-0.8361204013377926,-0.8361204013377926,-0.8361204013377926,-0.8361204013377926,-0.8361204013377926,-0.8361204013377926,-0.8361204013377926,-0.8361204013377926,-0.8361204013377926,-0.8361204013377926,-0.8361204013377926,-0.8361204013377926,-0.8361204013377926,-0.8361204013377926,-0.8361204013377926,-0.8361204013377926,-0.8361204013377926,-0.8361204013377926,-0.8361204013377926,-0.6008919298050794,-0.6008919298050794,-0.6008919298050794,-0.6008919298050794,-0.6008919298050794,-0.6008919298050794,-0.6008919298050794,-0.6008919298050794,-0.6008919298050794,-0.6008919298050794,-0.6008919298050794,-0.6008919298050794,-0.6008919298050794,-0.6008919298050794,-0.6008919298050794,-0.6008919298050794,-0.6008919298050794,-0.6008919298050794,-0.6008919298050794,-0.6008919298050794,-0.6008919298050794,-0.6008919298050794,-0.6008919298050794,-0.6008919298050794,-0.6008919298050794,-0.6008919298050794,-0.6008919298050794,-0.6008919298050794,-0.6008919298050794,-0.6008919298050794,-0.6008919298050794,-0.6008919298050794,-0.6008919298050794,-0.6008919298050794,-0.6008919298050794,-0.6008919298050794,-0.6008919298050794,-0.6008919298050794,-0.6008919298050794,-0.6008919298050794,-0.6008919298050794,-0.6008919298050794,-0.6008919298050794,-0.6008919298050794,-0.6008919298050794,-0.6008919298050794,-0.6008919298050794,-0.6008919298050794,-0.6008919298050794,-0.6008919298050794,-0.6008919298050794,-0.6008919298050794,-0.6008919298050794,-0.6008919298050794,-0.6008919298050794,-0.6008919298050794,-0.6008919298050794,-0.6008919298050794,-0.6008919298050794,-0.6008919298050794,-0.6008919298050794,-0.6008919298050794,-0.6008919298050794,-0.6008919298050794,-0.6008919298050794,-0.6008919298050794,-0.6008919298050794,-0.6008919298050794,-0.6008919298050794,-0.6008919298050794,-0.6008919298050794,-0.6008919298050794,-0.6008919298050794,-0.6008919298050794,-0.6008919298050794,-0.6008919298050794,-0.6008919298050794,-0.6008919298050794,-0.6008919298050794,-0.6008919298050794,-0.6008919298050794,-0.6008919298050794,-0.6008919298050794,-0.6008919298050794,-0.6008919298050794,-0.6008919298050794,-0.6008919298050794,-0.6008919298050794,-0.6008919298050794,-0.6008919298050794,-0.6008919298050794,-0.6008919298050794,-0.6008919298050794,-0.6008919298050794,-0.6008919298050794,-0.6008919298050794,-0.6008919298050794,-0.6008919298050794,-0.6008919298050794,-0.6008919298050794,-0.6008919298050794,-0.6008919298050794,-0.6008919298050794,-0.6008919298050794,-0.6008919298050794,-0.6008919298050794,-0.6008919298050794,-0.6008919298050794,-0.6008919298050794,-0.6008919298050794,-0.6008919298050794,-0.6008919298050794,-0.6008919298050794,-0.6008919298050794,-0.6008919298050794,-0.6008919298050794,-0.6008919298050794,-0.6008919298050794,-0.6008919298050794,-0.6008919298050794,-0.6008919298050794,-0.6008919298050794,-0.6008919298050794,-0.6008919298050794,-0.6008919298050794,-0.6008919298050794,-0.6008919298050794,-0.6008919298050794,-0.6008919298050794,-0.6008919298050794,-0.6008919298050794,-0.6008919298050794,-0.6008919298050794,-0.6008919298050794,-0.6008919298050794,-0.6008919298050794,-0.6008919298050794,-0.6008919298050794,-0.6008919298050794,-0.6008919298050794,-0.6008919298050794,-0.6008919298050794,-0.6008919298050794,-0.6008919298050794,-0.6008919298050794,-0.6008919298050794,-0.6008919298050794,-0.6008919298050794,-0.6008919298050794,-0.6008919298050794,-0.6008919298050794,-0.6008919298050794,-0.6008919298050794,-0.6008919298050794,-0.6008919298050794,-0.6008919298050794,-0.6008919298050794,-0.6008919298050794,-0.6008919298050794,-0.6008919298050794,-0.6008919298050794,-0.6008919298050794,-0.6008919298050794,-0.6008919298050794,-0.6008919298050794,-0.6008919298050794,-0.6008919298050794,-0.6008919298050794,-0.6008919298050794,-0.6008919298050794,-0.6008919298050794,-0.6008919298050794,-0.6008919298050794,-0.6008919298050794,-0.6008919298050794,-0.6008919298050794,-0.6008919298050794,-0.6008919298050794,-0.6008919298050794,-0.6008919298050794,-0.6008919298050794,-0.6008919298050794,-0.6008919298050794,-0.6008919298050794,-0.6008919298050794,-0.6008919298050794,-0.6008919298050794,-0.6008919298050794,-0.6008919298050794,-0.6008919298050794,-0.6008919298050794,-0.6008919298050794,-0.6008919298050794,-0.6008919298050794,-0.6008919298050794,-0.6008919298050794,-0.6008919298050794,-0.6008919298050794,-0.6008919298050794,-0.6008919298050794,-0.6008919298050794,-0.6008919298050794,-0.6008919298050794,-0.6008919298050794,-0.6008919298050794,-0.6008919298050794,-0.6008919298050794,-0.6008919298050794,-0.6008919298050794,-0.6008919298050794,-0.6008919298050794,-0.6008919298050794,-0.6008919298050794,-0.6008919298050794,-0.6008919298050794,-0.6008919298050794,-0.6008919298050794,-0.6008919298050794,-0.6008919298050794,-0.6008919298050794,-0.6008919298050794,-0.6008919298050794,-0.6008919298050794,-0.6008919298050794,-0.6008919298050794,-0.6008919298050794,-0.6008919298050794,-0.6008919298050794,-0.6008919298050794,-0.6008919298050794,-0.6008919298050794,-0.6008919298050794,-0.6008919298050794,-0.6008919298050794,-0.6008919298050794,-0.6008919298050794,-0.6008919298050794,-0.6008919298050794,-0.6008919298050794,-0.6008919298050794,-0.6008919298050794,-0.6008919298050794,-0.6008919298050794,-0.6008919298050794,-0.6008919298050794,-0.6008919298050794,-0.6008919298050794,-0.6008919298050794,-0.6008919298050794,-0.6008919298050794,-0.6008919298050794,-0.6008919298050794,-0.6008919298050794,-0.6008919298050794,-0.6008919298050794,-0.6008919298050794,-0.6008919298050794,-0.6008919298050794,-0.6008919298050794,-0.6008919298050794,-0.6008919298050794,-0.6008919298050794,-0.6008919298050794,-0.6008919298050794,-0.6008919298050794,-0.6008919298050794,-0.6008919298050794,-0.6008919298050794,-0.6008919298050794,-0.6008919298050794,-0.6008919298050794,-0.6008919298050794,-0.6008919298050794,-0.6008919298050794,-0.6008919298050794,-0.6008919298050794,-0.6008919298050794,-0.6008919298050794,-0.6008919298050794,-0.6008919298050794,-0.6008919298050794,-0.6008919298050794,-0.6008919298050794,-0.6008919298050794,-0.6008919298050794,-0.6008919298050794,-0.6008919298050794,-0.6008919298050794,-0.6008919298050794,-0.6008919298050794,-0.6008919298050794,-0.6008919298050794,-0.6008919298050794,-0.6008919298050794,-0.6008919298050794,-0.6008919298050794,-0.6008919298050794,-0.6008919298050794,-0.6008919298050794,-0.6008919298050794,-0.6008919298050794,-0.6008919298050794,-0.6008919298050794,-0.6008919298050794,-0.6008919298050794,-0.6008919298050794,-0.6008919298050794,-0.6008919298050794,-0.6008919298050794,-0.6008919298050794,-0.6008919298050794,-0.6008919298050794,-0.6008919298050794,-0.6008919298050794,-0.6008919298050794,-0.6008919298050794,-0.6008919298050794,-0.6008919298050794,-0.6008919298050794,-0.6008919298050794,-0.6008919298050794,-0.6008919298050794,-0.6008919298050794,-0.6008919298050794,-0.6008919298050794,-0.6008919298050794,-0.6008919298050794,-0.6008919298050794,-0.6008919298050794,-0.6008919298050794,-0.6008919298050794,-0.6008919298050794,-0.6008919298050794,-0.6008919298050794,-0.6008919298050794,-0.6008919298050794,-0.6008919298050794,-0.6008919298050794,-0.6008919298050794,-0.6008919298050794,-0.6008919298050794,-0.6008919298050794,-0.6008919298050794,-0.6008919298050794,-0.6008919298050794,-0.6008919298050794,-0.6008919298050794,-0.6008919298050794,-0.6008919298050794,-0.6008919298050794,-0.6008919298050794,-0.6008919298050794,-0.6008919298050794,-0.6008919298050794,-0.6008919298050794,-0.6008919298050794,-0.6008919298050794,-0.6008919298050794,-0.6008919298050794,-0.6008919298050794,-0.6008919298050794,-0.6008919298050794,-0.6008919298050794,-0.6008919298050794,-0.6008919298050794,-0.6008919298050794,-0.6008919298050794,-0.6008919298050794,-0.6008919298050794,-0.6008919298050794,-0.6008919298050794,-0.6008919298050794,-0.6008919298050794,-0.6008919298050794,-0.6008919298050794,-0.6008919298050794,-0.6008919298050794,-0.6008919298050794,-0.6008919298050794,-0.6008919298050794,-0.6008919298050794,-0.6008919298050794,-0.6008919298050794,-0.6008919298050794,-0.6008919298050794,-0.6008919298050794,-0.6008919298050794,-0.6008919298050794,-0.6008919298050794,-0.6008919298050794,-0.6008919298050794,-0.6008919298050794,-0.6008919298050794,-0.6008919298050794,-0.6008919298050794,-0.6008919298050794,-0.6008919298050794,-0.6008919298050794,-0.6008919298050794,-0.6008919298050794,-0.6008919298050794,-0.6008919298050794,-0.6008919298050794,-0.6008919298050794,-0.6008919298050794,-0.6008919298050794,-0.6008919298050794,-0.6008919298050794,-0.6008919298050794,-0.6008919298050794,-0.6008919298050794,-0.6008919298050794,-0.6008919298050794,-0.6008919298050794,-0.6008919298050794,-0.6008919298050794,-0.6008919298050794,-0.6008919298050794,-0.6008919298050794,-0.6008919298050794,-0.6008919298050794,-0.6008919298050794,-0.6008919298050794,-0.6008919298050794,-0.6008919298050794,-0.6008919298050794,-0.6008919298050794,-0.6008919298050794,-0.6008919298050794,-0.6008919298050794,-0.6008919298050794,-0.6008919298050794,-0.6008919298050794,-0.6008919298050794,-0.6008919298050794,-0.6008919298050794,-0.6008919298050794,-0.6008919298050794,-0.6008919298050794,-0.6008919298050794,-0.6008919298050794,-0.6008919298050794,-0.6008919298050794,-0.6008919298050794,-0.6008919298050794,-0.6008919298050794,-0.6008919298050794,-0.6008919298050794,-0.6008919298050794,-0.6008919298050794,-0.6008919298050794,-0.6008919298050794,-0.6008919298050794,-0.6008919298050794,-0.6008919298050794,-0.6008919298050794,-0.6008919298050794,-0.6008919298050794,-0.6008919298050794,-0.6008919298050794,-0.6008919298050794,-0.6008919298050794,-0.6008919298050794,-0.6008919298050794,-0.6008919298050794,-0.6008919298050794,-0.6008919298050794,-0.6008919298050794,-0.6008919298050794,-0.6008919298050794,-0.6008919298050794,-0.6008919298050794,-0.6008919298050794,-0.6008919298050794,-0.6008919298050794,-0.6008919298050794,-0.6008919298050794,-0.6008919298050794,-0.6008919298050794,-0.6008919298050794,-0.6008919298050794,-0.6008919298050794,-0.6008919298050794,-0.6008919298050794,-0.6008919298050794,-0.6008919298050794,-0.6008919298050794,-0.6008919298050794,-0.6008919298050794,-0.6008919298050794,-0.6008919298050794,-0.6008919298050794,-0.6008919298050794,-0.6008919298050794,-0.6008919298050794,-0.6008919298050794,-0.6008919298050794,-0.6008919298050794,-0.6008919298050794,-0.6008919298050794,-0.6008919298050794,-0.6008919298050794,-0.6008919298050794,-0.6008919298050794,-0.6008919298050794,-0.6008919298050794,-0.6008919298050794,-0.6008919298050794,-0.6008919298050794,-0.6008919298050794,-0.6008919298050794,-0.6008919298050794,-0.6008919298050794,-0.6008919298050794,-0.6008919298050794,-0.6008919298050794,-0.6008919298050794,-0.6008919298050794,-0.6008919298050794,-0.6008919298050794,-0.6008919298050794,-0.6008919298050794,-0.6008919298050794,-0.6008919298050794,-0.6008919298050794,-0.6008919298050794,-0.6008919298050794,-0.6008919298050794,-0.6008919298050794,-0.6008919298050794,-0.6008919298050794,-0.6008919298050794,-0.6008919298050794,-0.6008919298050794,-0.6008919298050794,-0.6008919298050794,-0.6008919298050794,-0.5997770685814695,-0.5997770685814695,-0.5986622073578596,-0.5975474481997283,-0.5953177257525084,-0.5919732441471572,-0.5886287625418061,-0.5852842809364549,-0.5808250401729724,-0.5763656973440113,-0.5574136689355143,-0.493868518433842,-0.4470457759589256,-0.4158305802871551,-0.39910817226039924,-0.39018958866795567,-0.38907472744434574,-0.3868451070626045,-0.38127090301003347,-0.3745819397993311,-0.36789297658862874,-0.36008925421979515,-0.3522854297854829,-0.34448160535117056,-0.335563021758727,-0.3255295769426735,-0.30992203013952757,-0.27424749163879597,-0.2318840919928407,-0.19509479433397783,-0.16722408026755853,-0.14715719063545152,-0.13266450505591554,-0.12263106023986205,-0.1159420970291597,-0.11036789297658862,-0.10033444816053512,-0.08807138296274039,-0.07580831776494565,-0.06354515050167224,-0.05351170568561873,-0.04459312209317517,-0.03567453850073161,-0.026755852842809364,-0.018952130473975752,-0.011148306039663462,-0.0022297224472198995,0.006688963210702341,0.015607546803145904,0.024526130395589464,0.034559575211642976,0.042363399645955264,0.05128198323839883,0.05908580767271112,0.06688963210702341,0.07580821569946697,0.08361204013377926,0.09253062372622282,0.10033444816053512,0.10925303175297868,0.11705685618729098,0.12486057855612458,0.13266440299043689,0.13823850497752926,0.14492751922097094,0.15161648243167328,0.15942025583324623,0.16833889045842915,0.1761426638600021,0.18394648829431437,0.19175026169588733,0.19843922490658966,0.20512818811729203,0.21293196151886495,0.22073578595317725,0.2285395593547502,0.2385730041708037,0.24860644898685724,0.25975470399378137,0.2709030100334448,0.2820512650403689,0.29431438127090304,0.30434782608695654,0.31549608109388066,0.32441471571906355,0.3333332993115071,0.34225193393669,0.35005570733826297,0.35785953177257523,0.36454849498327757,0.37346707857572115,0.38127090301003347,0.390189486602477,0.3968784498131793,0.40468227424749165,0.411371237458194,0.4180602006688963,0.42474916387959866,0.431438127090301,0.43924190049187395,0.4470456738934469,0.4559643085186298,0.46376808192020275,0.4726867165453857,0.4804904899469586,0.487179453157661,0.49498327759197325,0.5016722408026756,0.5083612040133779,0.5161649774149509,0.5239687508165238,0.5317725752508361,0.5384615384615384,0.5451505016722408,0.5518394648829431,0.5596432382845161,0.567447011686089,0.574136000413161,0.5819397993311036,0.5886287625418061,0.5953177257525084,0.6008918532559704]","[1,1,1,1,1,1,0,0,0,0,0,0,0,0,0,0,0,0,0,0,0,0,0,0,0,0,0,0,0,0,0,0,0,0,0,0,0,0,0,0,0,0,0,0,0,0,0,0,0,0,0,0,0,0,0,0,0,0,0,0,0,0,0,0,0,0,0,0,0,0,0,0,0,0,0,0,0,0,0,0,0,0,0,0,0,0,0,0,0,0,0,0,0,0,0,0,0,0,0,0,0,0,0,0,0,0,0,0,0,0,0,0,0,0,0,0,0,0,0,0,0,0,0,0,0,0,0,0,0,0,0,0,0,0,0,0,0,0,0,0,0,0,0,0,0,0,0,0,0,0,0,0,0,0,0,0,0,0,0,0,0,0,0,0,0,0,0,0,0,0,0,0,0,0,0,0,0,0,0,0,0,0,0,0,0,0,0,0,0,0,0,0,0,0,0,0,0,0,0,0,0,0,0,0,0,0,0,0,0,0,0,0,0,0,0,0,0,0,0,0,0,0,0,0,0,0,0,0,0,0,0,0,0,0,0,0,0,0,0,0,0,0,0,0,0,0,0,0,0,0,0,0,0,0,0,0,0,0,0,0,0,0,0,0,0,0,0,0,0,0,0,0,0,0,0,0,0,0,0,0,0,0,0,0,0,1,1,1,1,1,1,1,1,1,1,1,1,1,1,1,1,1,1,1,1,1,1,1,1,1,1,1,1,1,1,1,1,1,1,1,1,1,1,1,1,1,1,1,1,1,1,1,1,1,1,1,1,1,1,1,1,1,1,1,1,1,1,1,1,1,1,1,1,1,1,1,1,1,1,1,1,1,1,1,1,1,1,1,1,1,1,1,1,1,1,1,1,1,1,1,1,1,1,1,1,1,1,1,1,1,1,1,1,1,1,1,1,1,1,1,1,1,1,1,1,1,1,1,1,1,1,1,1,1,1,1,1,1,1,1,1,1,1,1,1,1,1,1,1,1,1,1,1,1,1,1,1,1,1,1,1,1,1,1,1,1,1,1,1,1,1,1,1,1,1,1,1,1,1,1,1,1,1,1,1,1,1,1,1,1,1,1,1,1,1,1,1,1,1,1,1,1,1,1,1,1,1,1,1,1,1,1,1,1,1,1,1,1,1,1,1,1,1,1,1,1,1,1,1,1,1,1,1,1,1,1,1,1,1,1,1,1,1,1,1,1,1,1,1,1,1,1,1,1,1,1,1,1,1,1,1,1,1,1,1,1,1,1,1,1,1,1,1,1,1,1,1,1,1,1,1,1,1,1,1,1,1,1,1,1,1,1,1,1,1,1,1,1,1,1,1,1,1,1,1,1,1,1,1,1,1,1,1,1,1,1,1,1,1,1,1,1,1,1,1,1,1,1,1,1,1,1,1,1,1,1,1,1,1,1,1,1,1,1,1,1,1,1,1,1,1,1,1,1,1,1,1,1,1,1,1,1,1,1,1,1,1,1,1,1,1,1,1,1,1,1,1,1,1,1,1,1,1,1,1,1,1,1,1,1,1,1,1,1,1,1,1,1,1,1,1,1,1,1,1,1,1,1,1,1,1,1,1,1,1,1,1,1,1,1,1,1,1,1,1,1,1,1,1,1,1,1,1,1,1,1,1,1,1,1,1,1,1,1,1,1,1,1,1,1,1,1,1,1,1,1,1,1,1,1,1,1,1,1,1,1,1,1,1,1,1,1,1,1,1,1,1,1,1,1,1,1,1,1,1,1,1,1,1,1,1,1,1,1,1,1,1,1,1,1,1,1,1,1,1,1,1,1,1,1,1,1,1,1,1,1,1,1,1,1,1,1,1,1,1,1,1,1,1,1,1,1,1,1,1,1,1,1,1,1,1,1,1,1,1,1,1,1,1,1,1,1,1,1,1,1,1,1,1,1,1,1,1,1,1,1,1,1,1,1,1,1,1,1,1,1,1,1,1,1,1,1,1,1,1,1,1,1,1,1,1,1,1,1,1,1,1,1,1,1,1,1,1,1,1,1,1,1,1,1,1,1,1,1,1,1,1,1,1,1,1,1,1,1,1,1,1,1,1,1,1,1,1,1,1,1,1,1,1,1,1,1,1,1,1,1,1,1,1,1,1,1,1,1,1,1,1,1,1,1,1,1,1,1]","[0,0,0,0,0,0,0,0,0,0,0,0,0,0,0,0,0,0,0,0,0,0,0,0,0,0,0,0,0,0,0,0,0,0,0,0,0,0,0,0,0,0,0,0,0,0,0,0,0,0,0,0,0,0,0,0,0,0,0,0,0,0,0,0,0,0,0,0,0,0,0,0,0,0,0,0,0,0,0,0,0,0,0,0,0,0,0,0,0,0,0,0,0,0,0,0,0,0,0,0,0,0,0,0,0,0,0,0,0,0,0,0,0,0,0,0,0,0,0,0,0,0,0,0,0,0,0,0,0,0,0,0,0,0,0,0,0,0,0,0,0,0,0,0,0,0,0,0,0,0,0,0,0,0,0,0,0,0,0,0,0,0,0,0,0,0,0,0,0,0,0,0,0,0,0,0,0,0,0,0,0,0,0,0,0,0,0,0,0,0,0,0,0,0,0,0,0,0,0,0,0,0,0,0,0,0,0,0,0,0,0,0,0,0,0,0,0,0,0,0,0,0,0,0,0,0,0,0,0,0,0,0,0,0,0,0,0,0,0,0,0,0,0,0,0,0,0,0,0,0,0,0,0,0,0,0,0,0,0,0,0,0,0,0,0,0,0,0,0,0,0,0,0,0,0,0,0,0,0,0,0,0,0,0,0,0,0,0,0,0,0,0,0,0,0,0,0,0,0,0,0,0,0,0,0,0,0,0,0,0,0,0,0,0,0,0,0,0,0,0,0,0,0,0,0,0,0,0,0,0,0,0,0,0,0,0,0,0,0,0,0,0,0,0,0,0,0,0,0,0,0,0,0,0,0,0,0,0,0,0,0,0,0,0,0,0,0,0,0,0,0,0,0,0,0,0,0,0,0,0,0,0,0,0,0,0,0,0,0,0,0,0,0,0,0,0,0,0,0,0,0,0,0,0,0,0,0,0,0,0,0,0,0,0,0,0,0,0,0,0,0,0,0,0,0,0,0,0,0,0,0,0,0,0,0,0,0,0,0,0,0,0,0,0,0,0,0,0,0,0,0,0,0,0,0,0,0,0,0,0,0,0,0,0,0,0,0,0,0,0,0,0,0,0,0,0,0,0,0,0,0,0,0,0,0,0,0,0,0,0,0,0,0,0,0,0,0,0,0,0,0,0,0,0,0,0,0,0,0,0,0,0,0,0,0,0,0,0,0,0,0,0,0,0,0,0,0,0,0,0,0,0,0,0,0,0,0,0,0,0,0,0,0,0,0,0,0,0,0,0,0,0,0,0,0,0,0,0,0,0,0,0,0,0,0,0,0,0,0,0,0,0,0,0,0,0,0,0,0,0,0,0,0,0,0,0,0,0,0,0,0,0,0,0,0,0,0,0,0,0,0,0,0,0,0,0,0,0,0,0,0,0,0,0,0,0,0,0,0,0,0,0,0,0,0,0,0,0,0,0,0,0,0,0,0,0,0,0,0,0,0,0,0,0,0,0,0,0,0,0,0,0,0,0,0,0,0,0,0,0,0,0,0,0,0,0,0,0,0,0,0,0,0,0,0,0,0,0,0,0,0,0,0,0,0,0,0,0,0,0,0,0,0,0,0,0,0,0,0,0,0,0,0,0,0,0,0,0,0,0,0,0,0,0,0,0,0,0,0,0,0,0,0,0,0,0,0,0,0,0,0,0,0,0,0,0,0,0,0,0,0,0,0,0,0,0,0,0,0,0,0,0,0,0,0,0,0,0,0,0,0,0,0,0,0,0,0,0,0,0,0,0,0,0,0,0,0,0,0,0,0,0,0,0,0,0,0,0,0,0,0,0,0,0,0,0,0,0,0,0,0,0,0,0,0,0,0,0,0,0,0,0,0,0,0,0,0,0,0,0,0,0,0,0,0,0,0,0,0,0,0,0,0,0,0,0,0,0,0,0,0,0,0,0,0,0,0,0,0,0,0,0,0,0,0,0,0,0,0,0,0,0,0,0,0,0,0,0,0,0,0,0,0,0,0,0,0,0,0,0,0,0,0,0,0,0,0,0,0,0,0,0,0,0,0,0,0,0,0,0,0,0,0,0,0,0,0,0,0,0,0,0,0,0,0,0,0,0,0,0,0,0,0,0,0,0,0,0,0,0,0,0,0,0,0,0,0,0,0,0,0,0,0,0]","[0,0,0,0,0,0,0,0,0,0,0,0,0,0,0,0,0,0,0,0,0,0,0,0,0,0,0,0,0,0,0,0,0,0,0,0,0,0,0,0,0,0,0,0,0,0,0,0,0,0,0,0,0,0,0,0,0,0,0,0,0,0,0,0,0,0,0,0,0,0,0,0,0,0,0,0,0,0,0,0,0,0,0,0,0,0,0,0,0,0,0,0,0,0,0,0,0,0,0,0,0,0,0,0,0,0,0,0,0,0,0,0,0,0,0,0,0,0,0,0,0,0,0,0,0,0,0,0,0,0,0,0,0,0,0,0,0,0,0,0,0,0,0,0,0,0,0,0,0,0,0,0,0,0,0,0,0,0,0,0,0,0,0,0,0,0,0,0,0,0,0,0,0,0,0,0,0,0,0,0,0,0,0,0,0,0,0,0,0,0,0,0,0,0,0,0,0,0,0,0,0,0,0,0,0,0,0,0,0,0,0,0,0,0,0,0,0,0,0,0,0,0,0,0,0,0,0,0,0,0,0,0,0,0,0,0,0,0,0,0,0,0,0,0,0,0,0,0,0,0,0,0,0,0,0,0,0,0,0,0,0,0,0,0,0,0,0,0,0,0,0,0,0,0,0,0,0,0,0,0,0,0,0,0,0,0,0,0,0,0,0,0,0,0,0,0,0,0,0,0,0,0,0,0,0,0,0,0,0,0,0,0,0,0,0,0,0,0,0,0,0,0,0,0,0,0,0,0,0,0,0,0,0,0,0,0,0,0,0,0,0,0,0,0,0,0,0,0,0,0,0,0,0,0,0,0,0,0,0,0,0,0,0,0,0,0,0,0,0,0,0,0,0,0,0,0,0,0,0,0,0,0,0,0,0,0,0,0,0,0,0,0,0,0,0,0,0,0,0,0,0,0,0,0,0,0,0,0,0,0,0,0,0,0,0,0,0,0,0,0,0,0,0,0,0,0,0,0,0,0,0,0,0,0,0,0,0,0,0,0,0,0,0,0,0,0,0,0,0,0,0,0,0,0,0,0,0,0,0,0,0,0,0,0,0,0,0,0,0,0,0,0,0,0,0,0,0,0,0,0,0,0,0,0,0,0,0,0,0,0,0,0,0,0,0,0,0,0,0,0,0,0,0,0,0,0,0,0,0,0,0,0,0,0,0,0,0,0,0,0,0,0,0,0,0,0,0,0,0,0,0,0,0,0,0,0,0,0,0,0,0,0,0,0,0,0,0,0,0,0,0,0,0,0,0,0,0,0,0,0,0,0,0,0,0,0,0,0,0,0,0,0,0,0,0,0,0,0,0,0,0,0,0,0,0,0,0,0,0,0,0,0,0,0,0,0,0,0,0,0,0,0,0,0,0,0,0,0,0,0,0,0,0,0,0,0,0,0,0,0,0,0,0,0,0,0,0,0,0,0,0,0,0,0,0,0,0,0,0,0,0,0,0,0,0,0,0,0,0,0,0,0,0,0,0,0,0,0,0,0,0,0,0,0,0,0,0,0,0,0,0,0,0,0,0,0,0,0,0,0,0,0,0,0,0,0,0,0,0,0,0,0,0,0,0,0,0,0,0,0,0,0,0,0,0,0,0,0,0,0,0,0,0,0,0,0,0,0,0,0,0,0,0,0,0,0,0,0,0,0,0,0,0,0,0,0,0,0,0,0,0,0,0,0,0,0,0,0,0,0,0,0,0,0,0,0,0,0,0,0,0,0,0,0,0,0,0,0,0,0,0,0,0,0,0,0,0,0,0,0,0,0,0,0,0,0,0,0,0,0,0,0,0,0,0,0,0,0,0,0,0,0,0,0,0,0,0,0,0,0,0,0,0,0,0,0,0,0,0,0,0,0,0,0,0,0,0,0,0,0,0,0,0,0,0,0,0,0,0,0,0,0,0,0,0,0,0,0,0,0,0,0,0,0,0,0,0,0,0,0,0,0,0,0,0,0,0,0,0,0,0,0,0,0,0,0,0,0,0,0,0,0,0,0,0,0,0,0,0,0,0,0,0,0,0,0,0,0,0,0,0,0,0,0,0,0,0,0,0,0,0,0,0,0,0,0,0,0,0,0,0,0,0,0,0,0,0,0,0,0,0,0,0,0,0,0,0,0,0,0,0,0,0,0]","[0,0.01970000000079608,0.03150000000101727,0.04750000000058208,0.06369999999878928,0.08169999999887523,0.09609999999889851,0.11230000000080054,0.1290000000008149,0.14600000000075397,0.1621000000013737,0.17880000000161544,0.19599999999996953,0.21199999999953434,0.228800000000831,0.24529999999873553,0.2616000000016925,0.2792000000009125,0.2955000000002883,0.31200000000177397,0.3289000000005444,0.3459000000002561,0.3620999999984633,0.3793000000005122,0.39559999999988804,0.41140000000092414,0.42910000000131276,0.44619999999861193,0.4615999999987821,0.4786999999997761,0.4946999999993409,0.5112999999983003,0.5279999999985421,0.5446000000011963,0.5613000000012107,0.5790999999990731,0.5947999999990543,0.6114999999990687,0.62889999999976,0.6445999999996275,0.6612999999998692,0.6784999999982233,0.694899999998654,0.7115000000013083,0.7281000000003814,0.7442999999985886,0.7621000000000322,0.7782000000006519,0.7955000000002883,0.8119000000006054,0.8289000000005444,0.8450999999987516,0.8614000000017086,0.8784000000014203,0.8944000000010988,0.9108999999990033,0.9278000000013549,0.9442000000017856,0.9608000000007451,0.977900000001739,0.9945000000006985,1.0106000000015456,1.028099999999597,1.043900000000633,1.061600000000908,1.0770999999986657,1.0938999999999623,1.110400000001448,1.127100000001576,1.1438000000017041,1.1604999999981374,1.1769999999997367,1.1947000000001253,1.2108999999983325,1.2273999999998182,1.243800000000249,1.2606000000015456,1.2769999999982815,1.294799999999725,1.3103000000010638,1.3276000000005865,1.3438999999999623,1.3603000000002794,1.3767000000008238,1.3935999999994806,1.410599999999306,1.427199999998379,1.4435999999986961,1.460299999998938,1.4768000000004236,1.4935000000005516,1.5103999999992084,1.5266999999985842,1.5440000000018017,1.5604999999997062,1.5767999999989684,1.5934000000016226,1.610000000000582,1.6267000000008238,1.6434999999984257,1.6602999999996086,1.6768999999986818,1.6935999999986961,1.7101000000002955,1.7265999999982,1.7435000000005516,1.760999999998603,1.7767999999997528,1.7933999999987122,1.8103000000010638,1.8267999999989684,1.84370000000132,1.8611999999993714,1.8767000000008238,1.8931999999987283,1.9095999999990454,1.926500000001397,1.9434000000001674,1.9596999999995433,1.9762999999985027,1.9930999999997994,2.009600000001285,2.026200000000358,2.0429000000003725,2.060699999998235,2.0761999999995737,2.092700000001173,2.110000000000582,2.126299999999958,2.1427000000003886,2.1599999999999113,2.17599999999959,2.192800000000773,2.2095999999983746,2.2262999999985027,2.242900000001157,2.2606000000015456,2.276200000000358,2.2927999999993176,2.309700000001669,2.3263000000006286,2.3430000000008704,2.3601999999992245,2.376100000001429,2.394000000000233,2.41010000000108,2.426299999999287,2.442699999999604,2.4609999999993875,2.4759999999988054,2.4926999999989334,2.5093000000015877,2.525900000000661,2.542600000000675,2.5600999999988403,2.5758999999998764,2.600699999999108,2.6093000000001325,2.625899999999092,2.6422999999996364,2.66019999999844,2.6758000000009474,2.693500000001336,2.7102000000013504,2.725800000000163,2.7436000000016065,2.760099999999511,2.776200000000358,2.7936999999984096,2.8100999999988403,2.825499999999124,2.8424000000014757,2.8601999999992245,2.8757000000005633,2.891999999999939,2.9085999999988985,2.92550000000125,2.941900000001681,2.9586999999992827,2.9756000000016343,2.992099999999539,3.0086000000010245,3.026399999998887,3.0420000000012806,3.0600000000013665,3.075199999999427,3.092499999998836,3.1084000000010406,3.125800000001732,3.1418999999987705,3.1598000000013826,3.175599999998724,3.191500000000815,3.209500000000901,3.2259000000013316,3.242399999999236,3.2593999999990615,3.2756999999983236,3.292099999998868,3.309399999998277,3.325199999999427,3.3421999999991385,3.35959999999983,3.375400000000866,3.392100000000994,3.4085000000014247,3.42599999999959,3.4415999999984024,3.4582000000010567,3.4750999999997134,3.4913000000016154,3.5086000000010245,3.525900000000661,3.5419000000002256,3.5594999999994457,3.5750999999982582,3.5917000000009125,3.6081000000013432,3.625,3.6424000000006913,3.659299999999348,3.674500000001103,3.6918000000005122,3.7078000000001907,3.7252000000007683,3.7417999999998415,3.75779999999952,3.7747999999992317,3.791199999999776,3.808499999999185,3.8248999999997295,3.841499999998689,3.8580000000002883,3.875,3.891299999999376,3.9082000000017274,3.925200000001553,3.941500000000815,3.9582000000010567,3.974699999998961,3.9926000000014596,4.008699999998612,4.024499999999534,4.041000000001134,4.057499999999038,4.074600000000032,4.091499999998689,4.1071999999985565,4.124700000000303,4.141199999998207,4.1578000000008615,4.174599999998463,4.190999999999008,4.207800000000191,4.224600000001374,4.240499999999884,4.25730000000118,4.273799999999085,4.291300000000831,4.307099999998286,4.3237999999983,4.340799999998239,4.357000000000028,4.3732999999994036,4.3901000000005865,4.407400000000109,4.424599999998463,4.440999999999008,4.457900000001359,4.473699999998701,4.489799999999434,4.506900000000428,4.524399999998479,4.541000000001134,4.556700000001001,4.5740000000006376,4.590899999999294,4.60670000000033,4.6232999999994036,4.640299999999115,4.656500000001017,4.673099999999977,4.68969999999905,4.70729999999827,4.725099999999713,4.741099999999278,4.7584999999999695,4.820599999999217,4.829699999998468,4.840899999999294,4.857400000000894,4.875899999999092,4.892700000000389,4.90669999999966,4.9262000000017,4.940099999999916,4.959699999999543,4.97260000000108,4.989300000001094,5.0084999999999695,5.022499999999241,5.039199999999255,5.056400000001304,5.074300000000335,5.092400000001476,5.106100000000936,5.123199999998235,5.1405000000014525,5.155900000001623,5.172800000000279,5.189200000000824,5.2062000000005355,5.224300000001676,5.240499999999884,5.25800000000163,5.272300000000598,5.289400000001592,5.306599999999946,5.322299999999814,5.3394999999982815,5.35670000000033,5.3725000000013665,5.389100000000326,5.405800000000568,5.42380000000054,5.439200000000824,5.458299999998417,5.473399999999003,5.489000000001397,5.50560000000047,5.5226000000002955,5.539000000000726,5.555899999999497,5.572000000000116,5.5890000000000555,5.6062999999994645,5.623800000001211,5.6401000000005865,5.65550000000087,5.671999999998775,5.689299999998184,5.705699999998728,5.723600000001227,5.741600000001313,5.757499999999823,5.772799999998938,5.788700000001029,5.805499999998631,5.8227999999981535,5.841799999998386,5.855299999999318,5.872999999999706,5.89080000000115,5.9055999999982305,5.921699999999078,5.938799999999958,5.956500000000233,5.972799999999609,5.988300000000947,6.007099999998957,6.021300000000451,6.038499999998805,6.055799999998328,6.072299999999814,6.0881000000009635,6.105899999998712,6.123100000000761,6.138899999998216,6.155200000001173,6.17209999999983,6.187799999999697,6.204699999998468,6.221600000000819,6.238300000000947,6.2546000000002095,6.272300000000598,6.288300000000163,6.3042999999998415,6.322299999999814,6.338199999998324,6.355100000000675,6.370599999998433,6.387699999999427,6.404800000000307,6.423299999998619,6.43799999999834,6.454300000001297,6.471199999999953,6.487700000001553,6.504799999998852,6.520899999999585,6.5374999999986585,6.555700000000854,6.570599999999217,6.587199999998177,6.604400000000226,6.621100000000354,6.6373999999997295,6.655299999998533,6.6718000000001325,6.687200000000303,6.704999999998165,6.720700000001727,6.738099999998724,6.754099999998402,6.770899999999585,6.788700000001029,6.804199999998673,6.821400000000722,6.838400000000661,6.855599999999015,6.87159999999858,6.887900000001537,6.904399999999441,6.920799999999986,6.937399999998945,6.953799999999376,6.970499999999504,6.987399999998161,7.004199999999457,7.022099999998375,7.037100000001374,7.0534000000007495,7.072599999999511,7.086599999998782,7.103400000000079,7.120800000000656,7.136800000000335,7.153999999998689,7.1718000000001325,7.189099999999655,7.204200000000242,7.220000000001164,7.236499999999069,7.253300000000365,7.27149999999898,7.287000000000319,7.304199999998673,7.322199999998759,7.337100000000703,7.353500000001134,7.369299999998589,7.38620000000094,7.404099999999744,7.420200000000591,7.436499999999853,7.4534999999996785,7.4701999999998066,7.488099999998724,7.5050000000010755,7.520100000001662,7.536100000001227,7.552800000001355,7.569700000000125,7.585800000000745,7.603200000001436,7.6195000000006985,7.63690000000139,7.65450000000061,7.670799999999986,7.685699999998235,7.703099999998813,7.719099999998491,7.737900000000195,7.7550000000010755,7.76929999999993,7.787700000000768,7.803100000001052,7.820400000000575,7.837299999999232,7.854200000001583,7.869599999998286,7.885399999999208,7.903999999998689,7.919999999998254,7.93679999999955,7.954499999999939,7.970900000000256,7.986700000001406,8.00270000000097,8.019599999999627,8.0361999999987,8.052899999998829,8.069400000000428,8.087700000000098,8.10220000000129,8.118600000001607,8.136999999998864,8.152399999999147,8.170999999998514,8.185799999999404,8.203600000000847,8.219799999999054,8.235599999999977,8.252100000001576,8.269899999999325,8.285299999999609,8.303199999998526,8.318899999998393,8.33520000000135,8.35229999999865,8.369500000000698,8.385299999998153,8.401699999998584,8.420600000001343,8.435799999999404,8.451700000001495,8.470099999998752,8.486000000000843,8.504099999998402,8.520599999999888,8.536100000001227,8.553299999999581,8.569899999998654,8.585899999998333,8.602500000000987,8.618600000001607,8.635699999998906,8.652900000000955,8.670200000000591,8.685799999999404,8.702000000001192,8.720300000000861,8.734899999999527,8.753600000000063,8.769400000001099,8.786700000000621,8.802400000000489,8.819200000001786,8.836100000000442,8.852900000001739,8.869500000000698,8.885099999999511,8.901399999998887,8.918600000000936,8.93470000000167,8.952000000001192,8.969700000001467,8.984499999998775,9.00319999999931,9.017800000001444,9.034299999999348,9.051899999998682,9.068800000001033,9.084200000001204,9.100900000001332,9.11760000000146,9.135399999999208,9.151399999998887,9.168399999998712,9.18630000000121,9.201199999999574,9.217899999999702,9.235000000000582,9.25219999999905,9.267499999998165,9.28410000000082,9.301100000000645,9.318200000001639,9.334800000000598,9.350200000000768,9.367399999999236,9.383600000001024,9.401500000000055,9.41749999999962,9.434799999999143,9.451499999999271,9.467300000000307,9.483599999999683,9.500700000000563,9.516700000000242,9.533899999998596,9.550800000000947,9.567999999999302,9.583800000000451,9.600200000000768,9.616600000001313,9.633300000001327,9.650200000000098,9.668300000001238,9.68400000000122,9.700400000001537,9.716899999999441,9.73340000000104,9.751400000001127,9.76810000000114,9.784800000001383,9.8012000000017,9.818699999999865,9.833500000000754,9.85039999999941,9.86690000000101,9.883600000001024,9.900099999998929,9.91679999999917,9.934600000000614,9.949799999998561,9.966499999998689,9.983599999999683,10.000700000000563,10.017400000000691,10.033299999999201,10.04989999999816,10.067999999999302,10.084299999998677,10.100299999998356,10.117399999999236,10.133399999998915,10.150799999999492,10.166399999998305,10.183400000001825,10.200700000001234,10.216799999998386,10.233000000000288,10.250599999999395,10.267299999999636,10.283200000001727,10.301599999998984,10.31759999999855,10.33299999999872,10.349600000001374,10.366600000001313,10.382600000000878,10.401300000001413,10.417699999998263,10.434399999998277,10.451799999998968,10.466100000001518,10.484000000000435,10.499199999998496,10.51580000000115,10.532999999999504,10.551100000000645,10.565500000000668,10.582200000000796,10.599200000000621,10.615499999999884,10.633099999999217,10.649199999999837,10.665900000000079,10.684199999999748,10.701399999998216,10.715899999999294,10.732700000000591,10.749199999998496,10.766800000001297,10.782599999998752,10.799100000000237,10.81690000000168,10.833599999998114,10.849099999999567,10.867900000001157,10.88230000000118,10.89890000000014,10.915700000001436,10.932400000001564,10.94870000000094,10.966100000001518,10.982000000000028,10.998700000000156,11.015500000001452,11.031999999999357,11.048699999999371,11.066599999998402,11.082399999999325,11.098900000000924,11.116099999999278,11.132000000001483,11.148700000001611,11.165600000000381,11.181700000001001,11.198599999999772,11.215199999998845,11.231500000001802,11.248400000000458,11.264899999998363,11.283599999998899,11.298399999999674,11.315800000000365,11.332500000000493,11.35039999999941,11.365300000001355,11.38300000000163,11.400000000001569,11.41579999999891,11.431199999999194,11.448100000001546,11.465199999998845,11.482599999999422,11.498100000000761,11.515299999999115,11.531800000000715,11.549500000001103,11.56569999999931,11.582099999999627,11.598900000000924,11.614600000000792,11.631499999999562,11.647600000000295,11.665400000001739,11.681199999999194,11.6987999999983,11.714299999999753,11.73119999999841,11.747700000000009,11.764500000001192,11.781899999998188,11.798599999998316,11.815500000000668,11.83179999999993,11.848600000001227,11.865300000001355,11.882399999998654,11.89890000000014,11.92840000000075,11.936000000001513,11.948199999998906,11.965400000000955,11.98389999999938,12.000100000001169,12.016100000000847,12.031599999998491,12.048500000000843,12.064399999999353,12.08179999999993,12.09760000000108,12.113900000000342,12.13060000000047,12.147400000001653,12.164199999999255,12.180799999998328,12.198300000000074,12.214199999998584,12.230400000000373,12.24720000000167,12.264100000000326,12.282899999998449,12.297200000000885,12.314800000000218,12.330500000000086,12.347200000000214,12.3637000000017,12.381000000001336,12.397199999999543,12.413799999998503,12.431799999998589,12.447299999999814,12.46410000000111,12.480599999999015,12.496800000000917,12.513500000000931,12.530299999998533,12.546800000000133,12.564399999999353,12.580300000001444,12.597999999998137,12.613600000000645,12.630000000001075,12.6470000000009,12.663700000001029,12.681000000000552,12.696899999999061,12.713500000001716,12.730500000001541,12.747899999998538,12.766299999999376,12.781399999999962,12.798599999998316,12.814399999999353,12.830500000000086,12.847999999998137,12.863900000000342,12.881399999998393,12.898300000000745,12.913199999999108,12.931400000001304,12.946299999999667,12.964000000000055,12.981500000001802,12.996899999998277,13.013699999999574,13.02950000000061,13.046099999999683,13.063900000001127,13.080200000000389,13.097799999999609,13.113799999999287,13.13179999999926,13.147899999999993,13.164000000000726,13.181700000001001,13.196199999998612,13.213299999999492,13.232000000000028,13.245699999999488,13.263599999998519,13.280999999999096,13.298500000000843,13.312200000000303,13.329600000000994,13.347200000000214,13.362900000000195,13.381099999998696,13.395599999999888,13.413799999998503,13.429100000001313,13.447400000000982,13.463199999998324,13.481400000000633,13.497800000001064,13.513599999998519,13.529699999999139,13.545999999998514,13.562600000001169,13.581500000000233,13.595499999999504,13.613300000000947,13.629000000000815,13.646899999999846,13.662300000000016,13.679299999999841,13.696700000000419,13.71600000000035,13.72929999999917,13.74650000000122,13.763500000000931,13.781100000000265,13.79709999999983,13.813300000001732,13.829900000000691,13.846900000000517,13.864499999999737,13.880799999998999,13.896799999998677,13.913700000001029,13.930899999999497,13.946199999998612,13.96410000000111,13.979200000001583,13.996200000001522,14.014200000001495,14.031100000000265,14.04590000000104,14.063200000000563,14.08109999999948,14.09660000000082,14.113900000000342,14.129700000001378,14.147400000001653,14.163100000001634,14.181199999999194,14.197100000001285,14.212700000000098,14.23070000000007,14.246800000000917,14.263599999998519,14.279200000000912,14.297399999999527,14.312900000000866,14.329499999999939,14.346699999998293,14.362700000001553,14.38060000000047,14.397400000001653,14.412100000001374,14.429000000000144,14.446800000001588,14.463199999998324,14.479400000000226,14.496200000001522,14.512599999998258,14.52950000000061,14.54590000000104,14.562900000000866,14.580200000000389,14.59649999999965,14.61249999999933,14.628799999998705,14.64549999999872,14.662100000001374,14.680000000000405,14.695400000000575,14.7124000000004,14.728800000000831,14.745699999999488,14.761800000000335,14.779600000001778,14.795699999998817,14.812099999999248,14.829699999998468,14.846199999999953,14.8623000000008,14.878799999998705,14.894700000000796,14.912199999998961,14.929700000000707,14.94649999999831,14.96140000000014,14.978699999999776,14.996699999999748,15.010900000001243,15.02829999999824,15.04590000000104,15.061399999998798,15.079200000000242,15.096099999998899,15.113300000000947,15.130399999998247,15.144599999999627,15.16129999999987,15.178100000001052,15.194599999998957,15.212100000000703,15.227900000001739,15.244299999998589,15.262500000000784,15.277500000000202,15.29590000000104,15.311499999999853,15.327799999999115,15.345000000001164,15.361199999999371,15.380199999999604,15.394000000000233,15.410299999999609,15.427500000001658,15.444500000001483,15.460800000000745,15.47829999999891,15.494299999998589,15.511999999998864,15.528399999999294,15.544000000001802,15.561200000000156,15.577099999998666,15.594300000000715,15.612199999999632,15.62770000000097,15.64549999999872,15.662599999999713,15.677500000001658,15.694599999998957,15.711299999999085,15.727699999999516]",15.7919,,15.7919,15.7919,"[0,-0.6]",,15.7919,4.8227,15.7919,"[-0.5,0.7]",10.9692,9.1553,1.8139,4.8227,Rechaza,0,0,0,0,0,1,0,25,Train,Otro,5,3,25,10,,,,,,,,,,,,,,,,,,,,,,,,
,,,,,,,,,,,,,24140533,2021-04-21_13h36.19.205,DictadorBinary,2021.1.4,Linux armv7l,60.06366749,0.842592706,-0.816053512,1,0,0,partition_image,Otro,"[0.8425927056206597,0.8425927056206597,0.8425927056206597,0.8425927056206597,0.8425927056206597,0.8425927056206597,0.8425927056206597,0.8425927056206597,0.8425927056206597,0.8425927056206597,0.8425927056206597,0.8425927056206597,0.8425927056206597,0.8425927056206597,0.8425927056206597,0.8425927056206597,0.8425927056206597,0.8425927056206597,0.8425927056206597,0.8425927056206597,0.8425927056206597,0.8425927056206597,0.8425927056206597,0.8425927056206597,0.8425927056206597,0.8425927056206597,0.8425927056206597,0.8425927056206597,0.8425927056206597,0.8425927056206597,0.8425927056206597,0.8425927056206597,0.8425927056206597,0.8425927056206597,0.8425927056206597,0.8425927056206597,0.8425927056206597,0.8425927056206597,0.8425927056206597,0.8425927056206597,0.8425927056206597,0.8425927056206597,0.8425927056206597,0.8425927056206597,0.8425927056206597,0.8425927056206597,0.8425927056206597,0.8425927056206597,0.8425927056206597,0.8425927056206597,0.8425927056206597,0.8425927056206597,0.8425927056206597,0.8425927056206597,0.8425927056206597,0.8425927056206597,0.8425927056206597,0.8425927056206597,0.8425927056206597,0.8425927056206597,0.8425927056206597,0.8425927056206597,0.8425927056206597,0.8425927056206597,0.8425927056206597,0.8425927056206597,0.8425927056206597,0.8425927056206597,0.8425927056206597,0.8425927056206597,0.8425927056206597,0.8425927056206597,0.8425927056206597,0.8425927056206597,0.8425927056206597,0.8425927056206597,0.8425927056206597,0.8425927056206597,0.8425927056206597,0.8425927056206597,0.8425927056206597,0.8425927056206597,0.8425927056206597,0.8425927056206597,0.8425927056206597,0.8425927056206597,0.8425927056206597,0.8425927056206597,0.8425927056206597,0.8425927056206597,0.8425927056206597,0.8425927056206597,0.8425927056206597,0.8425927056206597,0.8425927056206597,0.8425927056206597,0.8425927056206597,0.8425927056206597,0.8425927056206597,0.8425927056206597,0.8425927056206597,0.8425927056206597,0.8425927056206597,0.8425927056206597,0.8425927056206597,0.8425927056206597,0.8425927056206597,0.8425927056206597,0.8425927056206597,0.8425927056206597,0.8425927056206597,0.8425927056206597,0.8425927056206597,0.8425927056206597,0.8425927056206597,0.8425927056206597,0.8425927056206597,0.8425927056206597,0.8425927056206597,0.8425927056206597,0.8425927056206597,0.8425927056206597,0.8425927056206597,0.8425927056206597,0.8425927056206597,0.8425927056206597,0.8425927056206597,0.0074074639214409725,0.0074074639214409725,0.0074074639214409725,0.0074074639214409725,0.0074074639214409725,0.0074074639214409725,0.0074074639214409725,0.0074074639214409725,0.0074074639214409725,0.0074074639214409725,0.0074074639214409725,0.0074074639214409725,0.0074074639214409725,0.0074074639214409725,0.0074074639214409725,0.0074074639214409725,0.0074074639214409725,0.0074074639214409725,0.0074074639214409725,0.0074074639214409725,0.0074074639214409725,0.0074074639214409725,0.0074074639214409725,0.0074074639214409725,0.0074074639214409725,0.0074074639214409725,0.0074074639214409725,0.0074074639214409725,0.0074074639214409725,0.0074074639214409725,0.0074074639214409725,0.0074074639214409725,0.0074074639214409725,0.0074074639214409725,0.0074074639214409725,0.0074074639214409725,0.0074074639214409725,0.0074074639214409725,0.0074074639214409725,0.0074074639214409725,0.0074074639214409725,0.0074074639214409725,0.0074074639214409725,0.0074074639214409725,0.0074074639214409725,0.0074074639214409725,0.0074074639214409725,0.0074074639214409725,0.0074074639214409725,0.0037037319607204863,0.0018519083658854166,0,0,-0.0018518235948350695,-0.0018518235948350695,-0.005555555555555556,-0.009259202745225695,-0.01481475830078125,-0.022222222222222223,-0.02962960137261285,-0.03888888888888889,-0.05,-0.0592592027452257,-0.07037031385633681,-0.08148142496744791,-0.08888888888888889,-0.1,-0.11296293470594618,-0.12407404581705729,-0.13703698052300348,-0.14814809163411458,-0.16481475830078124,-0.18333333333333332,-0.2,-0.22037031385633682,-0.2351851569281684,-0.25185182359483504,-0.26666666666666666,-0.27962960137261283,-0.29074071248372396,-0.30370368957519533,-0.3148148006863064,-0.3277777777777778,-0.3388888888888889,-0.3518518235948351,-0.36481480068630645,-0.37962960137261287,-0.3925925784640842,-0.4037036895751953,-0.4129629347059462,-0.4222222222222222,-0.4351851569281684,-0.44814813401963977,-0.4629629347059462,-0.4740740458170573]","[-0.8160535117056856,-0.8160535117056856,-0.8160535117056856,-0.8160535117056856,-0.8160535117056856,-0.8160535117056856,-0.8160535117056856,-0.8160535117056856,-0.8160535117056856,-0.8160535117056856,-0.8160535117056856,-0.8160535117056856,-0.8160535117056856,-0.8160535117056856,-0.8160535117056856,-0.8160535117056856,-0.8160535117056856,-0.8160535117056856,-0.8160535117056856,-0.8160535117056856,-0.8160535117056856,-0.8160535117056856,-0.8160535117056856,-0.8160535117056856,-0.8160535117056856,-0.8160535117056856,-0.8160535117056856,-0.8160535117056856,-0.8160535117056856,-0.8160535117056856,-0.8160535117056856,-0.8160535117056856,-0.8160535117056856,-0.8160535117056856,-0.8160535117056856,-0.8160535117056856,-0.8160535117056856,-0.8160535117056856,-0.8160535117056856,-0.8160535117056856,-0.8160535117056856,-0.8160535117056856,-0.8160535117056856,-0.8160535117056856,-0.8160535117056856,-0.8160535117056856,-0.8160535117056856,-0.8160535117056856,-0.8160535117056856,-0.8160535117056856,-0.8160535117056856,-0.8160535117056856,-0.8160535117056856,-0.8160535117056856,-0.8160535117056856,-0.8160535117056856,-0.8160535117056856,-0.8160535117056856,-0.8160535117056856,-0.8160535117056856,-0.8160535117056856,-0.8160535117056856,-0.8160535117056856,-0.8160535117056856,-0.8160535117056856,-0.8160535117056856,-0.8160535117056856,-0.8160535117056856,-0.8160535117056856,-0.8160535117056856,-0.8160535117056856,-0.8160535117056856,-0.8160535117056856,-0.8160535117056856,-0.8160535117056856,-0.8160535117056856,-0.8160535117056856,-0.8160535117056856,-0.8160535117056856,-0.8160535117056856,-0.8160535117056856,-0.8160535117056856,-0.8160535117056856,-0.8160535117056856,-0.8160535117056856,-0.8160535117056856,-0.8160535117056856,-0.8160535117056856,-0.8160535117056856,-0.8160535117056856,-0.8160535117056856,-0.8160535117056856,-0.8160535117056856,-0.8160535117056856,-0.8160535117056856,-0.8160535117056856,-0.8160535117056856,-0.8160535117056856,-0.8160535117056856,-0.8160535117056856,-0.8160535117056856,-0.8160535117056856,-0.8160535117056856,-0.8160535117056856,-0.8160535117056856,-0.8160535117056856,-0.8160535117056856,-0.8160535117056856,-0.8160535117056856,-0.8160535117056856,-0.8160535117056856,-0.8160535117056856,-0.8160535117056856,-0.8160535117056856,-0.8160535117056856,-0.8160535117056856,-0.8160535117056856,-0.8160535117056856,-0.8160535117056856,-0.8160535117056856,-0.8160535117056856,-0.8160535117056856,-0.8160535117056856,-0.8160535117056856,-0.8160535117056856,-0.8160535117056856,-0.8160535117056856,-0.6031215501868207,-0.6031215501868207,-0.6031215501868207,-0.6031215501868207,-0.6031215501868207,-0.6031215501868207,-0.6031215501868207,-0.6031215501868207,-0.6031215501868207,-0.6031215501868207,-0.6031215501868207,-0.6031215501868207,-0.6031215501868207,-0.6031215501868207,-0.6031215501868207,-0.6031215501868207,-0.6031215501868207,-0.6031215501868207,-0.6031215501868207,-0.6031215501868207,-0.6031215501868207,-0.6031215501868207,-0.6031215501868207,-0.6031215501868207,-0.6031215501868207,-0.6031215501868207,-0.6031215501868207,-0.6031215501868207,-0.6031215501868207,-0.6031215501868207,-0.6031215501868207,-0.6031215501868207,-0.6031215501868207,-0.6031215501868207,-0.6031215501868207,-0.6031215501868207,-0.6031215501868207,-0.6031215501868207,-0.6031215501868207,-0.6031215501868207,-0.6031215501868207,-0.6031215501868207,-0.6031215501868207,-0.6031215501868207,-0.6031215501868207,-0.6031215501868207,-0.6031215501868207,-0.6031215501868207,-0.6031215501868207,-0.5964325869761183,-0.5886287625418061,-0.5830546605547137,-0.5785953177257525,-0.5730212157386602,-0.5663322525279578,-0.5585284280936454,-0.5473802241194607,-0.5351170568561873,-0.5183946488294314,-0.49944262042093435,-0.48049059201243727,-0.4593088411567203,-0.43812709030100333,-0.41917506189250625,-0.39910817226039924,-0.37904128262829223,-0.35451505016722407,-0.3311036789297659,-0.3065775485341764,-0.27982169569136706,-0.2497213612432065,-0.21070234113712374,-0.17168342309651966,-0.13489412543765678,-0.09587520739705267,-0.056856187290969896,-0.015607648868624582,0.023411371237458192,0.06354515050167224,0.10144920731866638,0.13935336620113922,0.17391304347826086,0.20512818811729203,0.23076923076923078,0.2653288570136131,0.3065774464686977,0.35005570733826297,0.391304347826087,0.42920845567582044,0.46153846153846156,0.4983277591973244,0.5373466772379285,0.5719063545150501,0.5997770175487301,0.6243032244934286]","[1,0,0,0,0,0,0,0,0,0,0,0,0,0,0,0,0,0,0,0,0,0,0,0,0,0,0,0,0,0,0,0,0,0,0,0,0,0,0,0,0,0,0,0,0,0,0,0,0,0,0,0,0,0,0,0,0,0,0,0,0,0,0,0,0,0,0,0,0,0,0,0,0,0,0,0,0,0,0,0,0,0,0,0,0,0,0,0,0,0,0,0,0,0,0,0,0,0,0,0,0,0,0,0,0,0,0,0,0,0,0,0,0,0,0,0,0,0,0,0,0,0,0,0,0,0,0,1,1,1,1,1,1,1,1,1,1,1,1,1,1,1,1,1,1,1,1,1,1,1,1,1,1,1,1,1,1,1,1,1,1,1,1,1,1,1,1,1,1,1,1,1,1,1,1,1,1,1,1,1,1,1,1,1,1,1,1,1,1,1,1,1,1,1,1,1,1,1,1,1,1,1,1,1,1,1,1,1,1,1,1,1,1,1,1,1,1,1,1,1,1,1]","[0,0,0,0,0,0,0,0,0,0,0,0,0,0,0,0,0,0,0,0,0,0,0,0,0,0,0,0,0,0,0,0,0,0,0,0,0,0,0,0,0,0,0,0,0,0,0,0,0,0,0,0,0,0,0,0,0,0,0,0,0,0,0,0,0,0,0,0,0,0,0,0,0,0,0,0,0,0,0,0,0,0,0,0,0,0,0,0,0,0,0,0,0,0,0,0,0,0,0,0,0,0,0,0,0,0,0,0,0,0,0,0,0,0,0,0,0,0,0,0,0,0,0,0,0,0,0,0,0,0,0,0,0,0,0,0,0,0,0,0,0,0,0,0,0,0,0,0,0,0,0,0,0,0,0,0,0,0,0,0,0,0,0,0,0,0,0,0,0,0,0,0,0,0,0,0,0,0,0,0,0,0,0,0,0,0,0,0,0,0,0,0,0,0,0,0,0,0,0,0,0,0,0,0,0,0,0,0,0,0,0,0,0,0,0,0,0,0,0,0,0,0]","[0,0,0,0,0,0,0,0,0,0,0,0,0,0,0,0,0,0,0,0,0,0,0,0,0,0,0,0,0,0,0,0,0,0,0,0,0,0,0,0,0,0,0,0,0,0,0,0,0,0,0,0,0,0,0,0,0,0,0,0,0,0,0,0,0,0,0,0,0,0,0,0,0,0,0,0,0,0,0,0,0,0,0,0,0,0,0,0,0,0,0,0,0,0,0,0,0,0,0,0,0,0,0,0,0,0,0,0,0,0,0,0,0,0,0,0,0,0,0,0,0,0,0,0,0,0,0,0,0,0,0,0,0,0,0,0,0,0,0,0,0,0,0,0,0,0,0,0,0,0,0,0,0,0,0,0,0,0,0,0,0,0,0,0,0,0,0,0,0,0,0,0,0,0,0,0,0,0,0,0,0,0,0,0,0,0,0,0,0,0,0,0,0,0,0,0,0,0,0,0,0,0,0,0,0,0,0,0,0,0,0,0,0,0,0,0,0,0,0,0,0,0]","[0.00019999999852871042,0.010500000000263299,0.01870000000053551,0.034400000000403,0.051899999998454405,0.06810000000035643,0.08439999999961856,0.10099999999869169,0.1182000000007406,0.13469999999864513,0.15239999999892007,0.1676999999980353,0.18430000000068958,0.20100000000093132,0.2180999999982305,0.23410000000149012,0.2512999999998442,0.26789999999880365,0.2848999999987427,0.30120000000169966,0.318800000000806,0.33459999999826096,0.3510999999998603,0.36799999999851707,0.3842000000004191,0.4019999999981678,0.4176000000006752,0.43419999999963466,0.4523000000007755,0.4674000000012484,0.48479999999824486,0.5005999999993946,0.5178999999988037,0.5341999999981795,0.5512000000016997,0.5685000000011087,0.5842999999985636,0.6005000000004657,0.6173000000016486,0.6337999999995532,0.6513000000012994,0.6680000000014275,0.6837000000012949,0.7006000000000654,0.7174000000012484,0.7340000000003215,0.750499999998226,0.768199999998501,0.7835999999987848,0.8002000000014391,0.8169000000015672,0.8335000000005266,0.8506999999989944,0.8676999999988197,0.8834999999998558,0.9001999999999839,0.916900000000112,0.9341999999996347,0.9501999999991995,0.9665999999997439,0.9834000000009269,1,1.016800000001183,1.0334000000002561,1.050200000001439,1.0672000000012645,1.0835000000005266,1.0996999999987338,1.1166999999986729,1.1329000000004612,1.1500000000013415,1.166499999999246,1.1831999999994878,1.1997000000009734,1.2164000000011015,1.233000000000061,1.250499999998226,1.2662999999992621,1.2841000000007057,1.2995999999984633,1.3162999999984777,1.332900000001132,1.3496000000013737,1.3663999999989755,1.3827999999992926,1.3994999999995343,1.4160999999984938,1.4333000000005427,1.4500000000006708,1.466199999998878,1.483000000000061,1.4998000000013576,1.5165999999989594,1.5328999999982216,1.5502999999989129,1.566999999999041,1.5826000000014346,1.599500000000205,1.61720000000048,1.6332000000001585,1.6500000000013415,1.6657999999987965,1.683700000001295,1.7000000000006708,1.717100000001551,1.7341999999988502,1.7495000000016603,1.7658999999985099,1.7826999999996929,1.799399999999821,1.815699999999083,1.8326999999990221,1.8490999999993392,1.8656000000009385,1.8826999999982377,1.899199999999837,1.9154999999990991,1.9331999999994878,1.9493000000001075,1.9665999999997439,1.9824000000006663,1.9988000000012107,2.0158000000009224,2.0325999999985243,2.048900000001481,2.0658000000002517,2.082299999998156,2.1000999999995997,2.118099999999572,2.1777000000001863,2.1908000000002517,2.2027999999991152,2.217100000001551,2.2348999999994135,2.2492999999994367,2.268199999998501,2.2832999999990875,2.2989999999990687,2.3150999999996884,2.333699999999169,2.349900000001071,2.3660999999992782,2.382199999999898,2.398399999998105,2.4153000000004567,2.43189999999953,2.448499999998603,2.4645999999992227,2.482899999999006,2.5001999999985287,2.516199999998207,2.532699999999693,2.548500000000729,2.5649000000011597,2.581900000000985,2.5992000000005078,2.6150999999990177,2.631199999999751,2.6477999999987105,2.6644999999989523,2.6815999999998326,2.6978999999992084,2.71489999999892,2.7325999999993087,2.7497000000003027,2.7667000000000144,2.7816999999994323,2.7978000000002794,2.814799999999991,2.8322000000006824,2.848600000001113,2.866200000000333,2.8823000000010666,2.897899999999879,2.916399999998191,2.935000000001253,2.951700000001381,2.9664000000011015,2.982899999999006,2.9994000000006054,3.015500000001225,3.0328999999982216,3.050699999999665,3.067500000000962,3.0830999999997744,3.099999999998431,3.1159999999981096,3.1333999999986872,3.1500000000013415,3.165499999999099,3.184399999998277,3.2000999999981445,3.215799999998012,3.2321999999985565,3.2498999999988314,3.2655999999988126,3.2821000000002982,3.3001000000002705,3.3155000000005543,3.332699999999022,3.3493000000016764,3.366200000000333,3.3816000000005033,3.3989000000001397,3.416099999998494,3.4315999999998326,3.4488999999993553,3.4654000000009546,3.4824000000006663,3.498700000000042,3.5152999999991152,3.53299999999939,3.549500000000876,3.565200000000857,3.5830999999997744,3.5997999999999024,3.6156000000009385,3.6336000000010245,3.648799999998971,3.6667000000015832,3.6820999999980586,3.698499999998603]",3.7456,,3.7456,3.7456,"[0,-0.6]",,3.7456,2.1653,3.7456,"[-0.5,0.7]",1.5803,1.0152,0.5651,2.1653,Rechaza,0,0,1,1,1,1,6,19,Train,Otro,5,3,25,10,,,,,,,,,,,,,,,,,,,,,,,,
,,,,,,,,,,,,,24140533,2021-04-21_13h36.19.205,DictadorBinary,2021.1.4,Linux armv7l,60.06366749,0.814814928,-0.842809365,1,0,0,partition_image,Otro,"[0.8148149278428819,0.8148149278428819,0.8148149278428819,0.8148149278428819,0.8148149278428819,0.8148149278428819,0.8148149278428819,0.8148149278428819,0.8148149278428819,0.8148149278428819,0.8148149278428819,0.8148149278428819,0.8148149278428819,0.8148149278428819,0.8148149278428819,0.8148149278428819,0.8148149278428819,0.8148149278428819,0.8148149278428819,0.8148149278428819,0.8148149278428819,0.8148149278428819,0.8148149278428819,0.8148149278428819,0.8148149278428819,0.8148149278428819,0.8148149278428819,0.8148149278428819,0.8148149278428819,0.8148149278428819,0.8148149278428819,0.8148149278428819,0.8148149278428819,0.8148149278428819,0.8148149278428819,0.8148149278428819,0.8148149278428819,0.8148149278428819,0.8148149278428819,0.8148149278428819,0.8148149278428819,0.8148149278428819,0.8148149278428819,0.8148149278428819,0.8148149278428819,0.8148149278428819,0.8148149278428819,0.8148149278428819,0.8148149278428819,0.8148149278428819,0.8148149278428819,0.8148149278428819,0.8148149278428819,0.8148149278428819,0.8148149278428819,0.8148149278428819,0.8148149278428819,0.8148149278428819,0.8148149278428819,0.8148149278428819,0.8148149278428819,0.8148149278428819,0.8148149278428819,0.8148149278428819,0.8148149278428819,0.8148149278428819,0.8148149278428819,0.8148149278428819,0.8148149278428819,0.8148149278428819,0.8148149278428819,0.8148149278428819,0.8148149278428819,0.8148149278428819,0.8148149278428819,0.8148149278428819,0.8148149278428819,0.8148149278428819,0.8148149278428819,0.8148149278428819,0.8148149278428819,0.8148149278428819,0.012963019476996528,0.012963019476996528,0.012963019476996528,0.012963019476996528,0.012963019476996528,0.012963019476996528,0.012963019476996528,0.012963019476996528,0.012963019476996528,0.012963019476996528,0.012963019476996528,0.012963019476996528,0.012963019476996528,0.012963019476996528,0.012963019476996528,0.012963019476996528,0.012963019476996528,0.012963019476996528,0.012963019476996528,0.012963019476996528,0.012963019476996528,0.012963019476996528,0.0018519083658854166,-0.003703647189670139,-0.003703647189670139,-0.027777777777777776,-0.04629626803927951,-0.0592592027452257,-0.07777777777777778,-0.09444444444444444,-0.11296293470594618,-0.1351851569281684,-0.15740737915039063,-0.18148142496744793,-0.20555555555555555,-0.22777777777777777,-0.25185182359483504,-0.2703703138563368,-0.2925925784640842,-0.31296293470594616,-0.3351851569281684,-0.35555555555555557,-0.37222222222222223,-0.39074071248372394,-0.40555555555555556,-0.41851849026150173,-0.4314814673529731,-0.4462962680392795,-0.4592592451307509,-0.47037035624186196,-0.4777777777777778,-0.4851851569281684,-0.490740712483724,-0.4962962680392795,-0.501851823594835,-0.5092592451307508,-0.5185184902615018,-0.5259259117974175,-0.5296296013726128,-0.5370370229085286,-0.5407407124837239,-0.5462962680392796,-0.5537036895751953]","[-0.842809364548495,-0.842809364548495,-0.842809364548495,-0.842809364548495,-0.842809364548495,-0.842809364548495,-0.842809364548495,-0.842809364548495,-0.842809364548495,-0.842809364548495,-0.842809364548495,-0.842809364548495,-0.842809364548495,-0.842809364548495,-0.842809364548495,-0.842809364548495,-0.842809364548495,-0.842809364548495,-0.842809364548495,-0.842809364548495,-0.842809364548495,-0.842809364548495,-0.842809364548495,-0.842809364548495,-0.842809364548495,-0.842809364548495,-0.842809364548495,-0.842809364548495,-0.842809364548495,-0.842809364548495,-0.842809364548495,-0.842809364548495,-0.842809364548495,-0.842809364548495,-0.842809364548495,-0.842809364548495,-0.842809364548495,-0.842809364548495,-0.842809364548495,-0.842809364548495,-0.842809364548495,-0.842809364548495,-0.842809364548495,-0.842809364548495,-0.842809364548495,-0.842809364548495,-0.842809364548495,-0.842809364548495,-0.842809364548495,-0.842809364548495,-0.842809364548495,-0.842809364548495,-0.842809364548495,-0.842809364548495,-0.842809364548495,-0.842809364548495,-0.842809364548495,-0.842809364548495,-0.842809364548495,-0.842809364548495,-0.842809364548495,-0.842809364548495,-0.842809364548495,-0.842809364548495,-0.842809364548495,-0.842809364548495,-0.842809364548495,-0.842809364548495,-0.842809364548495,-0.842809364548495,-0.842809364548495,-0.842809364548495,-0.842809364548495,-0.842809364548495,-0.842809364548495,-0.842809364548495,-0.842809364548495,-0.842809364548495,-0.842809364548495,-0.842809364548495,-0.842809364548495,-0.842809364548495,-0.5997770685814695,-0.5997770685814695,-0.5997770685814695,-0.5997770685814695,-0.5997770685814695,-0.5997770685814695,-0.5997770685814695,-0.5997770685814695,-0.5997770685814695,-0.5997770685814695,-0.5997770685814695,-0.5997770685814695,-0.5997770685814695,-0.5997770685814695,-0.5997770685814695,-0.5997770685814695,-0.5997770685814695,-0.5997770685814695,-0.5997770685814695,-0.5997770685814695,-0.5997770685814695,-0.5997770685814695,-0.5942029665943771,-0.5875140033836748,-0.5875140033836748,-0.5629877709226067,-0.5406912609087584,-0.5217391304347826,-0.5005574816445443,-0.47603124918347617,-0.44593091473531565,-0.4124860986818039,-0.376811662246551,-0.34002236458768814,-0.3021182057052153,-0.26532890804635245,-0.22742474916387959,-0.19063545150501673,-0.1505016722408027,-0.10925313381845736,-0.061315530119931023,-0.012263167263273412,0.03678929765886288,0.0802675585284281,0.11928647656903218,0.14938681101719273,0.18283162707070444,0.22408026755852842,0.2664436672044837,0.3076923076923077,0.34448160535117056,0.3756967499902017,0.4013377926421405,0.4169453394452864,0.4414715719063545,0.4704570451309051,0.4972128979737145,0.5217391304347826,0.5429208302577603,0.5618729096989966,0.5774804820185122,0.5975473716506192,0.6231883887861883]","[1,1,1,1,1,1,1,1,1,1,1,1,1,1,1,1,1,1,1,1,1,1,1,1,1,1,1,1,1,1,1,1,1,1,1,1,1,1,1,1,1,1,1,0,0,0,0,0,0,0,0,0,0,0,0,0,0,0,0,0,0,0,0,0,0,0,0,0,0,0,0,0,0,0,0,0,0,0,0,0,0,0,1,1,1,1,1,1,1,1,1,1,1,1,1,1,1,1,1,1,1,1,1,1,1,1,1,1,1,1,1,1,1,1,1,1,1,1,1,1,1,1,1,1,1,1,1,1,1,1,1,1,1,1,1,1,1,1,1,1,1,1,1,1,1]","[0,0,0,0,0,0,0,0,0,0,0,0,0,0,0,0,0,0,0,0,0,0,0,0,0,0,0,0,0,0,0,0,0,0,0,0,0,0,0,0,0,0,0,0,0,0,0,0,0,0,0,0,0,0,0,0,0,0,0,0,0,0,0,0,0,0,0,0,0,0,0,0,0,0,0,0,0,0,0,0,0,0,0,0,0,0,0,0,0,0,0,0,0,0,0,0,0,0,0,0,0,0,0,0,0,0,0,0,0,0,0,0,0,0,0,0,0,0,0,0,0,0,0,0,0,0,0,0,0,0,0,0,0,0,0,0,0,0,0,0,0,0,0,0,0]","[0,0,0,0,0,0,0,0,0,0,0,0,0,0,0,0,0,0,0,0,0,0,0,0,0,0,0,0,0,0,0,0,0,0,0,0,0,0,0,0,0,0,0,0,0,0,0,0,0,0,0,0,0,0,0,0,0,0,0,0,0,0,0,0,0,0,0,0,0,0,0,0,0,0,0,0,0,0,0,0,0,0,0,0,0,0,0,0,0,0,0,0,0,0,0,0,0,0,0,0,0,0,0,0,0,0,0,0,0,0,0,0,0,0,0,0,0,0,0,0,0,0,0,0,0,0,0,0,0,0,0,0,0,0,0,0,0,0,0,0,0,0,0,0,0]","[0.00010000000116860974,0.0067999999992593985,0.022000000000900855,0.03960000000012087,0.05610000000160653,0.07220000000245363,0.08880000000141308,0.10570000000006985,0.12399999999985312,0.14020000000175514,0.1569000000017695,0.17239999999952715,0.1887999999999579,0.20530000000144355,0.2220999999990454,0.23879999999928714,0.2557000000016387,0.272800000002519,0.2887000000010289,0.30520000000251457,0.32229999999981374,0.33850000000171576,0.3578000000016459,0.3722000000016692,0.3883000000024026,0.40520000000117307,0.42200000000235605,0.43839999999909196,0.45709999999962747,0.47270000000213486,0.4883000000009474,0.5054999999993015,0.5233000000007451,0.5381000000016343,0.5561000000016065,0.5717000000004191,0.5882000000020184,0.6059000000024071,0.6219000000019719,0.6383999999998764,0.656100000000265,0.6716000000014901,0.6892000000008238,0.7053000000014435,0.721300000001122,0.7380000000012501,0.7548999999999069,0.7713000000004513,0.7877000000007683,0.8044000000010101,0.8224000000009823,0.8377000000000976,0.8555000000015411,0.8712000000015223,0.8876999999994268,0.9043000000020811,0.9210000000020955,0.9376000000011686,0.9544999999999391,0.971700000001988,0.9877000000015528,1.0046000000002095,1.0217000000012035,1.0378999999994107,1.0552000000025146,1.0707000000002722,1.0878000000012662,1.1046000000024492,1.1216999999997483,1.1376000000018394,1.1545000000006098,1.1709000000010406,1.1886000000014292,1.2052000000003886,1.2207999999992012,1.2374999999993292,1.2543000000005122,1.271100000001809,1.2880000000004657,1.3042999999998415,1.3208000000013271,1.3372999999992317,1.354699999999923,1.3734000000004585,1.4301000000014596,1.4403000000020256,1.454700000002049,1.4720999999990454,1.4900999999991313,1.50389999999976,1.5220000000009009,1.5375000000022396,1.5541000000013128,1.5743000000003349,1.5920000000006098,1.6052000000018438,1.6203000000024304,1.637300000002142,1.6540999999997439,1.6712000000007379,1.6872000000003027,1.704600000000994,1.7216000000008194,1.7370000000011032,1.7566000000007307,1.771899999999846,1.7875999999997134,1.8048000000017623,1.8231000000015456,1.8392999999997528,1.8555000000015411,1.8726000000024214,1.888999999999271,1.9050000000025307,1.9226000000017507,1.9390999999996552,1.954700000002049,1.9729000000007773,1.9881999999998925,2.0041999999994573,2.022000000000901,2.0380000000004657,2.0541000000013128,2.0724000000009823,2.0881000000009635,2.1065000000018017,2.122800000001064,2.1378000000004818,2.1591000000008194,2.172000000002356,2.1885000000002606,2.205399999999031,2.220900000000256,2.238100000002305,2.2544999999991546,2.2721000000019558,2.288300000000163,2.3047000000007074,2.3228000000018483,2.3377000000000976,2.3545000000012806,2.370999999999185,2.3886000000021,2.405300000002228,2.42209999999983]",2.4639,,2.4639,2.4639,"[0,-0.6]",,2.4639,1.4152,2.4639,"[-0.5,0.7]",1.0487,0.499,0.5497,1.4152,Rechaza,0,0,2,2,2,1,13,12,Train,Otro,5,3,25,10,,,,,,,,,,,,,,,,,,,,,,,,
,,,,,,,,,,,,,24140533,2021-04-21_13h36.19.205,DictadorBinary,2021.1.4,Linux armv7l,60.06366749,0.792592706,-0.779264214,1,0,0,partition_image,Otro,"[0.7925927056206598,0.7925927056206598,0.7925927056206598,0.7925927056206598,0.7925927056206598,0.7925927056206598,0.7925927056206598,0.7925927056206598,0.7925927056206598,0.7925927056206598,0.7925927056206598,0.7925927056206598,0.7925927056206598,0.7925927056206598,0.7925927056206598,0.7925927056206598,0.7925927056206598,0.7925927056206598,0.7925927056206598,0.7925927056206598,0.7925927056206598,0.7925927056206598,0.7925927056206598,0.7925927056206598,0.7925927056206598,0.7925927056206598,0.7925927056206598,0.7925927056206598,0.7925927056206598,0.7925927056206598,0.7925927056206598,0.7925927056206598,0.7925927056206598,0.7925927056206598,0.7925927056206598,0.7925927056206598,0.7925927056206598,0.7925927056206598,0.7925927056206598,0.7925927056206598,0.7925927056206598,0.7925927056206598,0.7925927056206598,0.7925927056206598,0.7925927056206598,0.7925927056206598,0.7925927056206598,0.7925927056206598,0.7925927056206598,0.7925927056206598,0.7925927056206598,0.7925927056206598,0.05740746392144097,0.05740746392144097,0.05740746392144097,0.05740746392144097,0.05740746392144097,0.05740746392144097,0.05740746392144097,0.05740746392144097,0.05740746392144097,0.05740746392144097,0.05740746392144097,0.05740746392144097,0.05740746392144097,0.05740746392144097,0.05740746392144097,0.05740746392144097,0.05740746392144097,0.05740746392144097,0.05740746392144097,0.05740746392144097,0.05740746392144097,0.05740746392144097,0.05740746392144097,0.05740746392144097,0.05740746392144097,0.05740746392144097,0.05740746392144097,0.04074079725477431,0.03148150973849827,0.022222222222222223,0.009259287516276042,-0.0018518235948350695,-0.020370313856336805,-0.035185156928168405,-0.05185182359483507,-0.06851849026150174,-0.08333333333333333,-0.09444444444444444,-0.1092592027452257,-0.11851849026150174,-0.12962960137261284,-0.14074071248372397,-0.15185182359483507,-0.16851849026150173,-0.18148142496744793,-0.19629626803927952,-0.21666666666666667,-0.23703698052300348,-0.2611111111111111,-0.2851851569281684,-0.3074073791503906,-0.3296296013726128,-0.34814813401963973,-0.36481480068630645,-0.38333333333333336,-0.4,-0.4166666666666667,-0.42962960137261286,-0.4425925784640842,-0.45185182359483506,-0.4592592451307509,-0.46481480068630643,-0.46481480068630643,-0.4666666666666667,-0.4666666666666667,-0.4685184902615017,-0.4685184902615017,-0.47037035624186196,-0.47037035624186196,-0.47037035624186196,-0.47037035624186196,-0.4722222222222222,-0.4722222222222222,-0.4722222222222222,-0.4722222222222222,-0.4740740458170573,-0.4740740458170573]","[-0.7792642140468228,-0.7792642140468228,-0.7792642140468228,-0.7792642140468228,-0.7792642140468228,-0.7792642140468228,-0.7792642140468228,-0.7792642140468228,-0.7792642140468228,-0.7792642140468228,-0.7792642140468228,-0.7792642140468228,-0.7792642140468228,-0.7792642140468228,-0.7792642140468228,-0.7792642140468228,-0.7792642140468228,-0.7792642140468228,-0.7792642140468228,-0.7792642140468228,-0.7792642140468228,-0.7792642140468228,-0.7792642140468228,-0.7792642140468228,-0.7792642140468228,-0.7792642140468228,-0.7792642140468228,-0.7792642140468228,-0.7792642140468228,-0.7792642140468228,-0.7792642140468228,-0.7792642140468228,-0.7792642140468228,-0.7792642140468228,-0.7792642140468228,-0.7792642140468228,-0.7792642140468228,-0.7792642140468228,-0.7792642140468228,-0.7792642140468228,-0.7792642140468228,-0.7792642140468228,-0.7792642140468228,-0.7792642140468228,-0.7792642140468228,-0.7792642140468228,-0.7792642140468228,-0.7792642140468228,-0.7792642140468228,-0.7792642140468228,-0.7792642140468228,-0.7792642140468228,-0.6399108478456835,-0.6399108478456835,-0.6399108478456835,-0.6399108478456835,-0.6399108478456835,-0.6399108478456835,-0.6399108478456835,-0.6399108478456835,-0.6399108478456835,-0.6399108478456835,-0.6399108478456835,-0.6399108478456835,-0.6399108478456835,-0.6399108478456835,-0.6399108478456835,-0.6399108478456835,-0.6399108478456835,-0.6399108478456835,-0.6399108478456835,-0.6399108478456835,-0.6399108478456835,-0.6399108478456835,-0.6399108478456835,-0.6399108478456835,-0.6399108478456835,-0.6399108478456835,-0.6399108478456835,-0.6287625418060201,-0.6209588194371864,-0.6120401337792643,-0.6020066889632107,-0.589743623765416,-0.5763656973440113,-0.5618729096989966,-0.5451505016722408,-0.5273133344873536,-0.5072464448552466,-0.48383507361778844,-0.4570792207749791,-0.42920850670855976,-0.4024526538657504,-0.3779264214046823,-0.34782608695652173,-0.3121516505212688,-0.27424749163879597,-0.23745819397993312,-0.20178375754468017,-0.16276483950407608,-0.11928657863451086,-0.0746934565413357,-0.028985575290029264,0.017837167184887124,0.06577477088341346,0.11036789297658862,0.15384615384615385,0.1962095534921091,0.23411371237458195,0.2753623018296666,0.31884056269923183,0.35785953177257523,0.39576363962230876,0.431438127090301,0.46376808192020275,0.4916387959866221,0.5117056856187291,0.527313232421875,0.5351170568561873,0.5395763486524091,0.547380122053982,0.556298756679165,0.5641025300807379,0.5707914932914402,0.576365646311272,0.5808249636238634,0.5875139268345657,0.594202890045268,0.6008918532559704]","[1,1,1,0,0,0,0,0,0,0,0,0,0,0,0,0,0,0,0,0,0,0,0,0,0,0,0,0,0,0,0,0,0,0,0,0,0,0,0,0,0,0,0,0,0,0,0,0,0,0,0,0,1,1,1,1,1,1,1,1,1,1,1,1,1,1,1,1,1,1,1,1,1,1,1,1,1,1,1,1,1,1,1,1,1,1,1,1,1,1,1,1,1,1,1,1,1,1,1,1,1,1,1,1,1,1,1,1,1,1,1,1,1,1,1,1,1,1,1,1,1,1,1,1,1,1,1,1,1]","[0,0,0,0,0,0,0,0,0,0,0,0,0,0,0,0,0,0,0,0,0,0,0,0,0,0,0,0,0,0,0,0,0,0,0,0,0,0,0,0,0,0,0,0,0,0,0,0,0,0,0,0,0,0,0,0,0,0,0,0,0,0,0,0,0,0,0,0,0,0,0,0,0,0,0,0,0,0,0,0,0,0,0,0,0,0,0,0,0,0,0,0,0,0,0,0,0,0,0,0,0,0,0,0,0,0,0,0,0,0,0,0,0,0,0,0,0,0,0,0,0,0,0,0,0,0,0,0,0]","[0,0,0,0,0,0,0,0,0,0,0,0,0,0,0,0,0,0,0,0,0,0,0,0,0,0,0,0,0,0,0,0,0,0,0,0,0,0,0,0,0,0,0,0,0,0,0,0,0,0,0,0,0,0,0,0,0,0,0,0,0,0,0,0,0,0,0,0,0,0,0,0,0,0,0,0,0,0,0,0,0,0,0,0,0,0,0,0,0,0,0,0,0,0,0,0,0,0,0,0,0,0,0,0,0,0,0,0,0,0,0,0,0,0,0,0,0,0,0,0,0,0,0,0,0,0,0,0,0]","[0,0.005799999998998828,0.022699999997655596,0.0387999999985027,0.055099999997764826,0.0720999999975902,0.08889999999877318,0.105199999998149,0.12110000000024002,0.1385999999984051,0.15499999999883585,0.17199999999866122,0.1875999999974738,0.20559999999744605,0.22309999999919228,0.23920000000003938,0.25489999999990687,0.27199999999720603,0.2874999999985448,0.30439999999731526,0.32149999999819556,0.3379999999996812,0.3548999999984517,0.3709999999991851,0.38780000000048176,0.4045999999980836,0.4215999999977953,0.4375999999974738,0.45409999999895945,0.47119999999995343,0.48760000000038417,0.50389999999976,0.5210999999981141,0.5377999999982421,0.5541999999986729,0.5710999999973296,0.5872999999992317,0.6041999999978884,0.6204999999972642,0.6376999999993131,0.6542999999983863,0.6710999999995693,0.6873999999989451,0.7039000000004307,0.7207999999992012,0.7376000000003842,0.7537999999985914,0.770300000000077,0.7874999999985448,0.8047000000005937,0.8212999999996669,0.8379999999996812,0.8537999999971362,0.8706999999994878,0.9411999999974228,0.9552999999977487,0.9702999999971667,0.987699999997858,1.0036000000000627,1.021199999999169,1.0367999999979816,1.0544999999983702,1.071700000000419,1.0869999999995343,1.1031999999977415,1.1199999999990382,1.1370999999999185,1.1533999999992943,1.170399999999006,1.1865999999972132,1.2033999999985099,1.2203999999983353,1.236899999999821,1.2533999999977254,1.272099999998261,1.2864999999982842,1.3029999999998836,1.3200999999971827,1.336699999999837,1.355199999998149,1.3725999999987266,1.388599999998405,1.4050999999998908,1.4208999999973457,1.438299999998037,1.4544999999998254,1.4710999999988985,1.4881999999997788,1.505699999997944,1.5217999999985636,1.5380999999979394,1.5556999999971595,1.5722999999998137,1.5884000000005472,1.6061999999984096,1.6208999999981302,1.638100000000179,1.6542999999983863,1.670799999999872,1.6889999999984866,1.7052000000003886,1.72099999999773,1.738900000000342,1.75389999999976,1.7721999999994296,1.7874999999985448,1.8048999999991224,1.8201999999982377,1.8374000000002866,1.8557999999975436,1.871899999998277,1.8870999999999185,1.9046999999991385,1.9218999999974926,1.9380999999993946,1.956399999999178,1.9723999999987427,1.9884999999994761,2.0046999999976833,2.0214999999988663,2.0393999999978973,2.054599999999425,2.070400000000575,2.0864999999976135,2.1048999999984517,2.12089999999813,2.13699999999875,2.1535000000003492,2.1706999999987033]",2.2124,,2.2124,2.2124,"[0,-0.6]",,2.2124,0.9123,2.2124,"[-0.5,0.7]",1.3001,0.6511,0.649,0.9123,Rechaza,0,0,3,3,3,1,19,6,Train,Otro,5,3,25,10,,,,,,,,,,,,,,,,,,,,,,,,
