Mouse_Instructions.x,Mouse_Instructions.y,Mouse_Instructions.leftButton,Mouse_Instructions.midButton,Mouse_Instructions.rightButton,Mouse_Instructions.clicked_name,instruccioness.thisRepN,instruccioness.thisTrialN,instruccioness.thisN,instruccioness.thisIndex,instruccioness.ran,Instrucciones,Texto,Cedula,date,expName,psychopyVersion,OS,frameRate,partition_mouse.x,partition_mouse.y,partition_mouse.leftButton,partition_mouse.midButton,partition_mouse.rightButton,partition_mouse.clicked_name,rolotro,tracking_2.x,tracking_2.y,tracking_2.leftButton,tracking_2.midButton,tracking_2.rightButton,tracking_2.time,tracking_2.stopped,tracking_2.startedR,tracking_2.stoppedR,start_region_2.stopped,start_region_2.pos,Question_2.started,Question_2.stopped,O0.startedR,O0.stoppedR,O0_choiceR.pos,Total_Time,Resp_Time,Mov_Time,Time_to_start,Choice,liftedFinger,Trainingg.thisRepN,Trainingg.thisTrialN,Trainingg.thisN,Trainingg.thisIndex,Trainingg.ran,Ud,Otro,Type,Rol_otro,Otro_transf,Multiplicador,Ud_manos,fichas_base,O1.startedR,O1.stoppedR,O1_choiceR.pos,fin_entrenamiento_mouse.x,fin_entrenamiento_mouse.y,fin_entrenamiento_mouse.leftButton,fin_entrenamiento_mouse.midButton,fin_entrenamiento_mouse.rightButton,fin_entrenamiento_mouse.clicked_name,mouse2.x,mouse2.y,mouse2.leftButton,mouse2.midButton,mouse2.rightButton,mouse2.clicked_name,trials.thisRepN,trials.thisTrialN,trials.thisN,trials.thisIndex,trials.ran,trials_2.thisRepN,trials_2.thisTrialN,trials_2.thisN,trials_2.thisIndex,trials_2.ran,TextoR,Pregunta
0.759259372,-0.761427047,1,0,0,next_button,0,0,0,0,1,1,"Imagine que usted y otra persona reciben cada uno 10 fichas. Cada una vale $3.000 pesos. 

Oprima la flecha para continuar.",12432880,2021-04-21_09h30.54.723,DictadorBinary,2021.1.4,Linux armv7l,60.07449237,,,,,,,,,,,,,,,,,,,,,,,,,,,,,,,,,,,,,,,,,,,,,,,,,,,,,,,,,,,,,,,,,,,,,
0.775926039,-0.826086957,1,0,0,next_button,0,1,1,1,1,2,"La otra persona le puede transferir a usted de 0 a 10 fichas. Esas fichas se triplican una vez se transfieren a usted.

Oprima la flecha para continuar",12432880,2021-04-21_09h30.54.723,DictadorBinary,2021.1.4,Linux armv7l,60.07449237,,,,,,,,,,,,,,,,,,,,,,,,,,,,,,,,,,,,,,,,,,,,,,,,,,,,,,,,,,,,,,,,,,,,,
0.792592706,-0.762541806,1,0,0,next_button,0,2,2,2,1,3,"Por ejemplo, si la otra persona le transfiere 2 fichas, se convierten en 6 fichas (2x3). Así, usted tendría en sus manos 16 fichas en total.

Oprima la flecha para continuar",12432880,2021-04-21_09h30.54.723,DictadorBinary,2021.1.4,Linux armv7l,60.07449237,,,,,,,,,,,,,,,,,,,,,,,,,,,,,,,,,,,,,,,,,,,,,,,,,,,,,,,,,,,,,,,,,,,,,
0.753703817,-0.804905308,1,0,0,next_button,0,3,3,3,1,4,"Su tarea es dividir las fichas que quedan en sus manos entre los dos.

Oprima la flecha para continuar",12432880,2021-04-21_09h30.54.723,DictadorBinary,2021.1.4,Linux armv7l,60.07449237,,,,,,,,,,,,,,,,,,,,,,,,,,,,,,,,,,,,,,,,,,,,,,,,,,,,,,,,,,,,,,,,,,,,,
0.796296353,-0.833890883,1,0,0,next_button,0,4,4,4,1,5,"Ninguno sabe el nombre del otro. 

Oprima la flecha para continuar.",12432880,2021-04-21_09h30.54.723,DictadorBinary,2021.1.4,Linux armv7l,60.07449237,,,,,,,,,,,,,,,,,,,,,,,,,,,,,,,,,,,,,,,,,,,,,,,,,,,,,,,,,,,,,,,,,,,,,
0.803703837,-0.785211312,1,0,0,next_button,0,5,5,5,1,6,"En cada turno, muevase al cuadro inferior para que aparezcan las cantidades. Desplacese a la cantidad que le daria al OTRO. 

Oprima la flecha para continuar.",12432880,2021-04-21_09h30.54.723,DictadorBinary,2021.1.4,Linux armv7l,60.07449237,,,,,,,,,,,,,,,,,,,,,,,,,,,,,,,,,,,,,,,,,,,,,,,,,,,,,,,,,,,,,,,,,,,,,
0.829629579,-0.805805006,1,0,0,next_button,0,6,6,6,1,7,"Si esta en su celular o una tableta, desplace su dedo por la pantalla mientras escoge.

Oprima la flecha para continuar.",12432880,2021-04-21_09h30.54.723,DictadorBinary,2021.1.4,Linux armv7l,60.07449237,,,,,,,,,,,,,,,,,,,,,,,,,,,,,,,,,,,,,,,,,,,,,,,,,,,,,,,,,,,,,,,,,,,,,
0.837037129,-0.814814834,1,0,0,next_button,0,7,7,7,1,8,"Empecemos con un entrenamiento corto para familiarizarse. 

Oprima la flecha para continuar.",12432880,2021-04-21_09h30.54.723,DictadorBinary,2021.1.4,Linux armv7l,60.07449237,,,,,,,,,,,,,,,,,,,,,,,,,,,,,,,,,,,,,,,,,,,,,,,,,,,,,,,,,,,,,,,,,,,,,
,,,,,,,,,,,,,12432880,2021-04-21_09h30.54.723,DictadorBinary,2021.1.4,Linux armv7l,60.07449237,0.799999875,-0.716994958,1,0,0,partition_image,Otro,"[0.7999998754384566,0.7999998754384566,0.7999998754384566,0.7999998754384566,0.7999998754384566,0.7999998754384566,0.7999998754384566,0.7999998754384566,0.7999998754384566,0.7999998754384566,0.7999998754384566,0.7999998754384566,0.7999998754384566,0.7999998754384566,0.7999998754384566,0.7999998754384566,0.7999998754384566,0.7999998754384566,0.7999998754384566,0.7999998754384566,0.7999998754384566,0.7999998754384566,0.7999998754384566,0.7999998754384566,0.7999998754384566,0.7999998754384566,0.7999998754384566,0.7999998754384566,0.7999998754384566,0.7999998754384566,0.7999998754384566,0.7999998754384566,0.7999998754384566,0.7999998754384566,0.7999998754384566,0.7999998754384566,0.7999998754384566,0.7999998754384566,0.7999998754384566,0.7999998754384566,0.7999998754384566,0.7999998754384566,0.7999998754384566,0.7999998754384566,0.7999998754384566,0.7999998754384566,0.7999998754384566,0.7999998754384566,0.7999998754384566,0.7999998754384566,0.7999998754384566,0.7999998754384566,0.7999998754384566,0.7999998754384566,0.7999998754384566,0.7999998754384566,0.7999998754384566,0.7999998754384566,0.7999998754384566,0.7999998754384566,0.7999998754384566,0.7999998754384566,0.7999998754384566,0.7999998754384566,0.7999998754384566,0.7999998754384566,0.7999998754384566,0.7999998754384566,0.7999998754384566,0.7999998754384566,0.7999998754384566,0.7999998754384566,0.7999998754384566,0.7999998754384566,0.7999998754384566,0.7999998754384566,0.7999998754384566,0.7999998754384566,0.7999998754384566,0.7999998754384566,0.7999998754384566,0.7999998754384566,0.7999998754384566,0.7999998754384566,0.7999998754384566,0.7999998754384566,0.7999998754384566,0.7999998754384566,0.7999998754384566,0.7999998754384566,0.7999998754384566,0.7999998754384566,0.7999998754384566,0.7999998754384566,0.7999998754384566,0.7999998754384566,0.7999998754384566,0.7999998754384566,0.7999998754384566,0.7999998754384566,0.7999998754384566,0.7999998754384566,0.7999998754384566,0.7999998754384566,0.7999998754384566,0.7999998754384566,0.7999998754384566,0.7999998754384566,0.7999998754384566,0.7999998754384566,0.7999998754384566,0.7999998754384566,0.7999998754384566,0.7999998754384566,0.7999998754384566,0.7999998754384566,0.7999998754384566,0.7999998754384566,0.7999998754384566,0.7999998754384566,0.7999998754384566,0.7999998754384566,0.7999998754384566,0.7999998754384566,0.7999998754384566,0.7999998754384566,0.7999998754384566,0.7999998754384566,0.7999998754384566,0.7999998754384566,0.7999998754384566,0.7999998754384566,0.7999998754384566,0.7999998754384566,0.7999998754384566,0.7999998754384566,0.7999998754384566,0.7999998754384566,0.7999998754384566,0.7999998754384566,0.7999998754384566,0.7999998754384566,0.7999998754384566,0.7999998754384566,0.7999998754384566,0.7999998754384566,0.7999998754384566,0.7999998754384566,0.7999998754384566,0.7999998754384566,0.7999998754384566,0.7999998754384566,0.7999998754384566,0.7999998754384566,0.7999998754384566,0.7999998754384566,0.7999998754384566,0.7999998754384566,0.7999998754384566,0.7999998754384566,0.7999998754384566,0.7999998754384566,0.7999998754384566,0.7999998754384566,0.7999998754384566,0.7999998754384566,0.7999998754384566,0.7999998754384566,0.7999998754384566,0.7999998754384566,0.7999998754384566,0.7999998754384566,0.7999998754384566,0.7999998754384566,0.7999998754384566,0.7999998754384566,0.7999998754384566,0.7999998754384566,0.7999998754384566,0.7999998754384566,0.7999998754384566,0.7999998754384566,0.7999998754384566,0.7999998754384566,0.7999998754384566,0.7999998754384566,0.7999998754384566,0.7999998754384566,0.7999998754384566,0.7999998754384566,0.7999998754384566,0.7999998754384566,0.7999998754384566,0.7999998754384566,0.7999998754384566,0.7999998754384566,0.7999998754384566,0.7999998754384566,0.7999998754384566,0.7999998754384566,0.7999998754384566,0.7999998754384566,0.7999998754384566,0.7999998754384566,0.7999998754384566,0.7999998754384566,0.7999998754384566,0.7999998754384566,0.7999998754384566,0.7999998754384566,0.7999998754384566,0.7999998754384566,0.7999998754384566,0.7999998754384566,0.7999998754384566,0.7999998754384566,0.7999998754384566,0.7999998754384566,0.7999998754384566,0.7999998754384566,0.7999998754384566,0.7999998754384566,0.7999998754384566,0.7999998754384566,0.7999998754384566,0.7999998754384566,0.7999998754384566,0.7999998754384566,0.7999998754384566,0.7999998754384566,0.7999998754384566,0.7999998754384566,0.7999998754384566,0.7999998754384566,0.7999998754384566,0.7999998754384566,0.7999998754384566,0.7999998754384566,0.7999998754384566,0.7999998754384566,0.7999998754384566,0.7999998754384566,0.7999998754384566,0.7999998754384566,0.7999998754384566,0.7999998754384566,0.7999998754384566,0.7999998754384566,0.7999998754384566,0.7999998754384566,0.7999998754384566,0.7999998754384566,0.7999998754384566,0.7999998754384566,0.7999998754384566,0.7999998754384566,0.7999998754384566,0.7999998754384566,0.7999998754384566,0.7999998754384566,0.7999998754384566,0.7999998754384566,0.7999998754384566,0.7999998754384566,0.7999998754384566,0.7999998754384566,0.7999998754384566,0.7999998754384566,0.7999998754384566,0.7999998754384566,0.7999998754384566,0.7999998754384566,0.7999998754384566,0.7999998754384566,0.7999998754384566,0.7999998754384566,0.7999998754384566,0.7999998754384566,0.7999998754384566,0.7999998754384566,0.7999998754384566,0.7999998754384566,0.7999998754384566,0.7999998754384566,0.7999998754384566,0.7999998754384566,0.7999998754384566,0.7999998754384566,0.7999998754384566,0.7999998754384566,0.7999998754384566,0.7999998754384566,0.7999998754384566,0.7999998754384566,0.7999998754384566,0.7999998754384566,0.7999998754384566,0.7999998754384566,0.7999998754384566,0.7999998754384566,0.7999998754384566,0.7999998754384566,0.7999998754384566,0.7999998754384566,0.7999998754384566,0.7999998754384566,0.7999998754384566,0.7999998754384566,0.7999998754384566,0.7999998754384566,0.7999998754384566,0.7999998754384566,0.7999998754384566,0.7999998754384566,0.7999998754384566,0.7999998754384566,0.7999998754384566,0.7999998754384566,0.7999998754384566,0.7999998754384566,0.7999998754384566,0.7999998754384566,0.7999998754384566,0.7999998754384566,0.7999998754384566,0.7999998754384566,0.7999998754384566,0.7999998754384566,0.7999998754384566,0.7999998754384566,0.7999998754384566,0.7999998754384566,0.7999998754384566,0.7999998754384566,0.7999998754384566,0.7999998754384566,0.7999998754384566,0.7999998754384566,0.7999998754384566,0.7999998754384566,0.7999998754384566,0.7999998754384566,0.7999998754384566,0.7999998754384566,0.7999998754384566,0.7999998754384566,0.7999998754384566,0.7999998754384566,0.7999998754384566,0.7999998754384566,0.7999998754384566,0.7999998754384566,0.7999998754384566,0.7999998754384566,0.7999998754384566,0.7999998754384566,0.7999998754384566,0.7999998754384566,0.7999998754384566,0.7999998754384566,0.7999998754384566,0.7999998754384566,0.7999998754384566,0.7999998754384566,0.7999998754384566,0.7999998754384566,0.7999998754384566,0.7999998754384566,0.7999998754384566,0.7999998754384566,0.7999998754384566,0.7999998754384566,0.7999998754384566,0.7999998754384566,0.7999998754384566,0.7999998754384566,0.7999998754384566,0.7999998754384566,0.7999998754384566,0.7999998754384566,0.7999998754384566,0.7999998754384566,0.7999998754384566,0.7999998754384566,0.7999998754384566,0.7999998754384566,0.7999998754384566,0.7999998754384566,0.7999998754384566,0.7999998754384566,0.7999998754384566,0.7999998754384566,0.7999998754384566,0.7999998754384566,0.7999998754384566,0.7999998754384566,0.7999998754384566,0.7999998754384566,0.7999998754384566,0.7999998754384566,0.7999998754384566,0.7999998754384566,0.7999998754384566,0.7999998754384566,0.7999998754384566,0.7999998754384566,0.7999998754384566,0.7999998754384566,0.7999998754384566,0.7999998754384566,0.7999998754384566,0.7999998754384566,0.7999998754384566,0.7999998754384566,0.7999998754384566,0.7999998754384566,0.7999998754384566,0.7999998754384566,0.7999998754384566,0.7999998754384566,0.7999998754384566,0.7999998754384566,0.7999998754384566,0.7999998754384566,0.7999998754384566,0.7999998754384566,0.7999998754384566,0.7999998754384566,0.7999998754384566,0.7999998754384566,0.7999998754384566,0.7999998754384566,0.7999998754384566,0.7999998754384566,0.7999998754384566,0.7999998754384566,0.7999998754384566,0.7999998754384566,0.7999998754384566,0.7999998754384566,0.7999998754384566,0.7999998754384566,0.7999998754384566,0.7999998754384566,0.7999998754384566,0.7999998754384566,0.7999998754384566,0.7999998754384566,0.7999998754384566,0.7999998754384566,0.7999998754384566,0.7999998754384566,0.7999998754384566,0.7999998754384566,0.7999998754384566,-0.0018518564652423468,-0.0018518564652423468,-0.0018518564652423468,-0.0018518564652423468,-0.0018518564652423468,-0.0018518564652423468,-0.0018518564652423468,-0.02777778469786352,-0.04259263641980229,-0.04259263641980229,-0.04259263641980229,-0.04259263641980229,-0.04259263641980229,-0.04259263641980229,-0.04259263641980229,-0.04259263641980229,-0.04259263641980229,-0.04259263641980229,-0.04259263641980229,-0.04259263641980229,-0.04259263641980229,-0.04259263641980229,-0.04259263641980229,-0.04259263641980229,-0.04259263641980229,-0.04259263641980229,-0.04259263641980229,-0.04259263641980229,-0.04259263641980229,-0.04259263641980229,-0.04259263641980229,-0.04259263641980229,-0.04259263641980229,-0.04259263641980229,-0.04259263641980229,-0.04259263641980229,-0.04259263641980229,-0.04259263641980229,-0.04259263641980229,-0.04259263641980229,-0.04259263641980229,-0.04259263641980229,-0.04259263641980229,-0.04259263641980229,-0.04259263641980229,-0.04259263641980229,-0.04259263641980229,-0.04259263641980229,-0.04259263641980229,-0.04259263641980229,-0.04259263641980229,-0.04259263641980229,-0.04259263641980229,-0.04259263641980229,-0.04259263641980229,-0.04259263641980229,-0.04259263641980229,-0.04259263641980229,-0.04259263641980229,-0.04259263641980229,-0.04259263641980229,-0.04259263641980229,-0.04259263641980229,-0.04259263641980229,-0.04259263641980229,-0.04259263641980229,-0.04259263641980229,-0.04259263641980229,-0.04259263641980229,-0.04259263641980229,-0.04259263641980229,-0.04259263641980229,-0.04259263641980229,-0.04259263641980229,-0.04259263641980229,-0.04259263641980229,-0.04259263641980229,-0.04259263641980229,-0.04259263641980229,-0.04259263641980229,-0.04259263641980229,-0.04259263641980229,-0.04259263641980229,-0.04259263641980229,-0.04259263641980229,-0.04259263641980229,-0.04259263641980229,-0.04259263641980229,-0.04259263641980229,-0.04259263641980229,-0.04259263641980229,-0.04259263641980229,-0.04259263641980229,-0.04259263641980229,-0.04259263641980229,-0.04259263641980229,-0.04259263641980229,-0.04259263641980229,-0.04259263641980229,-0.04259263641980229,-0.012962995256696428,-0.012962995256696428,-0.012962995256696428,-0.012962995256696428,-0.012962995256696428,-0.012962995256696428,-0.012962995256696428,-0.009259282326211735,-0.005555569395727041,-0.0018518564652423468,-0.0018518564652423468,-6.228077168367348e-8,-6.228077168367348e-8,-6.228077168367348e-8,-6.228077168367348e-8,0.0018518564652423468,0.0018518564652423468,0.0018518564652423468,0.0018518564652423468,0.0018518564652423468,0.0018518564652423468,0.0018518564652423468,0.0018518564652423468,0.0018518564652423468,0.0018518564652423468,0.0018518564652423468,0.0018518564652423468,0.0018518564652423468,0.0018518564652423468,0.0018518564652423468,0.0018518564652423468,0.0018518564652423468,0.0018518564652423468,0.0018518564652423468,0.0018518564652423468,0.0018518564652423468,0.0018518564652423468,0.0018518564652423468,0.0018518564652423468,0.0018518564652423468,0.0018518564652423468,0.0018518564652423468,0.0018518564652423468,0.0018518564652423468,0.0018518564652423468,0.0018518564652423468,0.0018518564652423468,0.0018518564652423468,0.0018518564652423468,0.0018518564652423468,0.0018518564652423468,0.0018518564652423468,0.0018518564652423468,0.0018518564652423468,0.0018518564652423468,0.0018518564652423468,0.0018518564652423468,0.0018518564652423468,0.0018518564652423468,0.0018518564652423468,0.0018518564652423468,0.0018518564652423468,0.0018518564652423468,0.0018518564652423468,0.0018518564652423468,0.0018518564652423468,0.0018518564652423468,0.0018518564652423468,0.0018518564652423468,-0.0018518564652423468,-0.0018518564652423468,-0.005555569395727041,-0.011111138791454082,-0.016666708187181124,-0.020370358836894132,-0.024074071767378826,-0.02777778469786352,-0.02962970344387755,-0.02962970344387755,-0.02962970344387755,-0.03148149762834821,-0.035185210558832905,-0.035185210558832905,-0.03703700474330357,-0.0388889234893176,-0.040740717673788264,-0.040740717673788264,-0.04259263641980229,-0.04444443060427296,-0.04629634935028699,-0.04629634935028699,-0.05000006228077168,-0.051851856465242346,-0.051851856465242346,-0.0537037129304847,-0.0537037129304847,-0.05555556939572704,-0.05555556939572704,-0.05555556939572704,-0.05555556939572704,-0.05555556939572704,-0.05555556939572704,-0.05555556939572704,-0.05555556939572704,-0.05555556939572704,-0.05555556939572704,-0.05555556939572704,-0.05555556939572704,-0.05555556939572704,-0.05555556939572704,-0.05555556939572704,-0.05555556939572704,-0.05555556939572704,-0.05555556939572704,-0.05555556939572704,-0.05555556939572704,-0.05555556939572704,-0.05555556939572704,-0.05555556939572704,-0.05555556939572704,-0.05555556939572704,-0.05555556939572704,-0.05555556939572704,-0.05555556939572704,-0.05555556939572704,-0.05555556939572704,-0.05555556939572704,-0.05555556939572704,-0.05555556939572704,-0.05555556939572704,-0.05555556939572704,-0.05555556939572704,-0.05555556939572704,-0.05555556939572704,-0.05555556939572704,-0.05555556939572704,-0.05555556939572704,-0.05555556939572704,-0.05555556939572704,-0.05555556939572704,-0.05555556939572704,-0.05555556939572704,-0.05555556939572704,-0.05555556939572704,-0.05555556939572704,-0.05555556939572704,-0.05555556939572704,-0.05555556939572704,-0.05555556939572704,-0.05555556939572704,-0.05555556939572704,-0.05555556939572704,-0.05555556939572704,-0.05555556939572704,-0.05555556939572704,-0.05555556939572704,-0.05555556939572704,-0.05555556939572704,-0.05555556939572704,-0.05555556939572704,-0.05555556939572704,-0.05555556939572704,-0.05555556939572704,-0.05555556939572704,-0.05555556939572704,-0.05555556939572704,-0.05555556939572704,-0.05555556939572704,-0.05555556939572704,-0.05555556939572704,-0.05925922004544005,-0.06111113879145408,-0.06296299525669642,-0.06481472716039541,-0.06851856465242347,-0.07037035883689413,-0.07222227758290817,-0.07407407176737883,-0.07962970344387756,-0.08333341637436224,-0.08518521055883291,-0.08703700474330357,-0.09074071767378826,-0.09259257413903062,-0.09629634935028698,-0.10000006228077168,-0.10370371293048469,-0.1074074258609694,-0.11111113879145408,-0.11296299525669642,-0.11481472716039541,-0.12222227758290816,-0.12592586595184949,-0.1388889234893176,-0.15370371293048468,-0.1648147271603954,-0.18148143534757652,-0.19814808125398597,-0.21111113879145407,-0.23148143534757654,-0.25,-0.2666666459064094,-0.2777777846978635,-0.2925926364198023,-0.30925928232621175,-0.32037042111766584,-0.33518521055883294,-0.3462962870695153,-0.36111113879145407,-0.3703704211176658,-0.3814814976283482,-0.38888886120854593,-0.39074071767378826,-0.39814814353475764,-0.4,-0.40185185646524235,-0.4037037129304847,-0.4037037129304847,-0.4037037129304847,-0.4037037129304847,-0.4037037129304847,-0.4037037129304847,-0.4037037129304847,-0.4037037129304847,-0.4037037129304847,-0.4037037129304847,-0.4037037129304847,-0.4037037129304847,-0.4037037129304847,-0.4037037129304847,-0.4037037129304847,-0.4037037129304847,-0.4037037129304847,-0.4037037129304847,-0.4037037129304847,-0.4037037129304847,-0.4037037129304847,-0.4037037129304847,-0.4037037129304847,-0.4037037129304847,-0.4037037129304847,-0.4037037129304847,-0.4037037129304847,-0.4037037129304847,-0.4037037129304847,-0.4037037129304847,-0.4037037129304847,-0.4037037129304847,-0.4037037129304847,-0.4037037129304847,-0.40555556939572707,-0.40555556939572707,-0.4074074258609694,-0.41111113879145406,-0.41296299525669644]","[-0.716994957890071,-0.716994957890071,-0.716994957890071,-0.716994957890071,-0.716994957890071,-0.716994957890071,-0.716994957890071,-0.716994957890071,-0.716994957890071,-0.716994957890071,-0.716994957890071,-0.716994957890071,-0.716994957890071,-0.716994957890071,-0.716994957890071,-0.716994957890071,-0.716994957890071,-0.716994957890071,-0.716994957890071,-0.716994957890071,-0.716994957890071,-0.716994957890071,-0.716994957890071,-0.716994957890071,-0.716994957890071,-0.716994957890071,-0.716994957890071,-0.716994957890071,-0.716994957890071,-0.716994957890071,-0.716994957890071,-0.716994957890071,-0.716994957890071,-0.716994957890071,-0.716994957890071,-0.716994957890071,-0.716994957890071,-0.716994957890071,-0.716994957890071,-0.716994957890071,-0.716994957890071,-0.716994957890071,-0.716994957890071,-0.716994957890071,-0.716994957890071,-0.716994957890071,-0.716994957890071,-0.716994957890071,-0.716994957890071,-0.716994957890071,-0.716994957890071,-0.716994957890071,-0.716994957890071,-0.716994957890071,-0.716994957890071,-0.716994957890071,-0.716994957890071,-0.716994957890071,-0.716994957890071,-0.716994957890071,-0.716994957890071,-0.716994957890071,-0.716994957890071,-0.716994957890071,-0.716994957890071,-0.716994957890071,-0.716994957890071,-0.716994957890071,-0.716994957890071,-0.716994957890071,-0.716994957890071,-0.716994957890071,-0.716994957890071,-0.716994957890071,-0.716994957890071,-0.716994957890071,-0.716994957890071,-0.716994957890071,-0.716994957890071,-0.716994957890071,-0.716994957890071,-0.716994957890071,-0.716994957890071,-0.716994957890071,-0.716994957890071,-0.716994957890071,-0.716994957890071,-0.716994957890071,-0.716994957890071,-0.716994957890071,-0.716994957890071,-0.716994957890071,-0.716994957890071,-0.716994957890071,-0.716994957890071,-0.716994957890071,-0.716994957890071,-0.716994957890071,-0.716994957890071,-0.716994957890071,-0.716994957890071,-0.716994957890071,-0.716994957890071,-0.716994957890071,-0.716994957890071,-0.716994957890071,-0.716994957890071,-0.716994957890071,-0.716994957890071,-0.716994957890071,-0.716994957890071,-0.716994957890071,-0.716994957890071,-0.716994957890071,-0.716994957890071,-0.716994957890071,-0.716994957890071,-0.716994957890071,-0.716994957890071,-0.716994957890071,-0.716994957890071,-0.716994957890071,-0.716994957890071,-0.716994957890071,-0.716994957890071,-0.716994957890071,-0.716994957890071,-0.716994957890071,-0.716994957890071,-0.716994957890071,-0.716994957890071,-0.716994957890071,-0.716994957890071,-0.716994957890071,-0.716994957890071,-0.716994957890071,-0.716994957890071,-0.716994957890071,-0.716994957890071,-0.716994957890071,-0.716994957890071,-0.716994957890071,-0.716994957890071,-0.716994957890071,-0.716994957890071,-0.716994957890071,-0.716994957890071,-0.716994957890071,-0.716994957890071,-0.716994957890071,-0.716994957890071,-0.716994957890071,-0.716994957890071,-0.716994957890071,-0.716994957890071,-0.716994957890071,-0.716994957890071,-0.716994957890071,-0.716994957890071,-0.716994957890071,-0.716994957890071,-0.716994957890071,-0.716994957890071,-0.716994957890071,-0.716994957890071,-0.716994957890071,-0.716994957890071,-0.716994957890071,-0.716994957890071,-0.716994957890071,-0.716994957890071,-0.716994957890071,-0.716994957890071,-0.716994957890071,-0.716994957890071,-0.716994957890071,-0.716994957890071,-0.716994957890071,-0.716994957890071,-0.716994957890071,-0.716994957890071,-0.716994957890071,-0.716994957890071,-0.716994957890071,-0.716994957890071,-0.716994957890071,-0.716994957890071,-0.716994957890071,-0.716994957890071,-0.716994957890071,-0.716994957890071,-0.716994957890071,-0.716994957890071,-0.716994957890071,-0.716994957890071,-0.716994957890071,-0.716994957890071,-0.716994957890071,-0.716994957890071,-0.716994957890071,-0.716994957890071,-0.716994957890071,-0.716994957890071,-0.716994957890071,-0.716994957890071,-0.716994957890071,-0.716994957890071,-0.716994957890071,-0.716994957890071,-0.716994957890071,-0.716994957890071,-0.716994957890071,-0.716994957890071,-0.716994957890071,-0.716994957890071,-0.716994957890071,-0.716994957890071,-0.716994957890071,-0.716994957890071,-0.716994957890071,-0.716994957890071,-0.716994957890071,-0.716994957890071,-0.716994957890071,-0.716994957890071,-0.716994957890071,-0.716994957890071,-0.716994957890071,-0.716994957890071,-0.716994957890071,-0.716994957890071,-0.716994957890071,-0.716994957890071,-0.716994957890071,-0.716994957890071,-0.716994957890071,-0.716994957890071,-0.716994957890071,-0.716994957890071,-0.716994957890071,-0.716994957890071,-0.716994957890071,-0.716994957890071,-0.716994957890071,-0.716994957890071,-0.716994957890071,-0.716994957890071,-0.716994957890071,-0.716994957890071,-0.716994957890071,-0.716994957890071,-0.716994957890071,-0.716994957890071,-0.716994957890071,-0.716994957890071,-0.716994957890071,-0.716994957890071,-0.716994957890071,-0.716994957890071,-0.716994957890071,-0.716994957890071,-0.716994957890071,-0.716994957890071,-0.716994957890071,-0.716994957890071,-0.716994957890071,-0.716994957890071,-0.716994957890071,-0.716994957890071,-0.716994957890071,-0.716994957890071,-0.716994957890071,-0.716994957890071,-0.716994957890071,-0.716994957890071,-0.716994957890071,-0.716994957890071,-0.716994957890071,-0.716994957890071,-0.716994957890071,-0.716994957890071,-0.716994957890071,-0.716994957890071,-0.716994957890071,-0.716994957890071,-0.716994957890071,-0.716994957890071,-0.716994957890071,-0.716994957890071,-0.716994957890071,-0.716994957890071,-0.716994957890071,-0.716994957890071,-0.716994957890071,-0.716994957890071,-0.716994957890071,-0.716994957890071,-0.716994957890071,-0.716994957890071,-0.716994957890071,-0.716994957890071,-0.716994957890071,-0.716994957890071,-0.716994957890071,-0.716994957890071,-0.716994957890071,-0.716994957890071,-0.716994957890071,-0.716994957890071,-0.716994957890071,-0.716994957890071,-0.716994957890071,-0.716994957890071,-0.716994957890071,-0.716994957890071,-0.716994957890071,-0.716994957890071,-0.716994957890071,-0.716994957890071,-0.716994957890071,-0.716994957890071,-0.716994957890071,-0.716994957890071,-0.716994957890071,-0.716994957890071,-0.716994957890071,-0.716994957890071,-0.716994957890071,-0.716994957890071,-0.716994957890071,-0.716994957890071,-0.716994957890071,-0.716994957890071,-0.716994957890071,-0.716994957890071,-0.716994957890071,-0.716994957890071,-0.716994957890071,-0.716994957890071,-0.716994957890071,-0.716994957890071,-0.716994957890071,-0.716994957890071,-0.716994957890071,-0.716994957890071,-0.716994957890071,-0.716994957890071,-0.716994957890071,-0.716994957890071,-0.716994957890071,-0.716994957890071,-0.716994957890071,-0.716994957890071,-0.716994957890071,-0.716994957890071,-0.716994957890071,-0.716994957890071,-0.716994957890071,-0.716994957890071,-0.716994957890071,-0.716994957890071,-0.716994957890071,-0.716994957890071,-0.716994957890071,-0.716994957890071,-0.716994957890071,-0.716994957890071,-0.716994957890071,-0.716994957890071,-0.716994957890071,-0.716994957890071,-0.716994957890071,-0.716994957890071,-0.716994957890071,-0.716994957890071,-0.716994957890071,-0.716994957890071,-0.716994957890071,-0.716994957890071,-0.716994957890071,-0.716994957890071,-0.716994957890071,-0.716994957890071,-0.716994957890071,-0.716994957890071,-0.716994957890071,-0.716994957890071,-0.716994957890071,-0.716994957890071,-0.716994957890071,-0.716994957890071,-0.716994957890071,-0.716994957890071,-0.716994957890071,-0.716994957890071,-0.716994957890071,-0.716994957890071,-0.716994957890071,-0.716994957890071,-0.716994957890071,-0.716994957890071,-0.716994957890071,-0.716994957890071,-0.716994957890071,-0.716994957890071,-0.716994957890071,-0.716994957890071,-0.716994957890071,-0.716994957890071,-0.716994957890071,-0.716994957890071,-0.716994957890071,-0.716994957890071,-0.716994957890071,-0.716994957890071,-0.716994957890071,-0.716994957890071,-0.716994957890071,-0.716994957890071,-0.716994957890071,-0.716994957890071,-0.716994957890071,-0.716994957890071,-0.716994957890071,-0.716994957890071,-0.716994957890071,-0.716994957890071,-0.716994957890071,-0.716994957890071,-0.716994957890071,-0.716994957890071,-0.716994957890071,-0.716994957890071,-0.716994957890071,-0.716994957890071,-0.716994957890071,-0.716994957890071,-0.716994957890071,-0.716994957890071,-0.716994957890071,-0.716994957890071,-0.716994957890071,-0.716994957890071,-0.716994957890071,-0.716994957890071,-0.716994957890071,-0.716994957890071,-0.716994957890071,-0.716994957890071,-0.716994957890071,-0.716994957890071,-0.716994957890071,-0.716994957890071,-0.716994957890071,-0.716994957890071,-0.5548201324246453,-0.5548201324246453,-0.5548201324246453,-0.5548201324246453,-0.5548201324246453,-0.5548201324246453,-0.5548201324246453,-0.5715524227061171,-0.5844234818262412,-0.5844234818262412,-0.5844234818262412,-0.5844234818262412,-0.5844234818262412,-0.5844234818262412,-0.5844234818262412,-0.5844234818262412,-0.5844234818262412,-0.5844234818262412,-0.5844234818262412,-0.5844234818262412,-0.5844234818262412,-0.5844234818262412,-0.5844234818262412,-0.5844234818262412,-0.5844234818262412,-0.5844234818262412,-0.5844234818262412,-0.5844234818262412,-0.5844234818262412,-0.5844234818262412,-0.5844234818262412,-0.5844234818262412,-0.5844234818262412,-0.5844234818262412,-0.5844234818262412,-0.5844234818262412,-0.5844234818262412,-0.5844234818262412,-0.5844234818262412,-0.5844234818262412,-0.5844234818262412,-0.5844234818262412,-0.5844234818262412,-0.5844234818262412,-0.5844234818262412,-0.5844234818262412,-0.5844234818262412,-0.5844234818262412,-0.5844234818262412,-0.5844234818262412,-0.5844234818262412,-0.5844234818262412,-0.5844234818262412,-0.5844234818262412,-0.5844234818262412,-0.5844234818262412,-0.5844234818262412,-0.5844234818262412,-0.5844234818262412,-0.5844234818262412,-0.5844234818262412,-0.5844234818262412,-0.5844234818262412,-0.5844234818262412,-0.5844234818262412,-0.5844234818262412,-0.5844234818262412,-0.5844234818262412,-0.5844234818262412,-0.5844234818262412,-0.5844234818262412,-0.5844234818262412,-0.5844234818262412,-0.5844234818262412,-0.5844234818262412,-0.5844234818262412,-0.5844234818262412,-0.5844234818262412,-0.5844234818262412,-0.5844234818262412,-0.5844234818262412,-0.5844234818262412,-0.5844234818262412,-0.5844234818262412,-0.5844234818262412,-0.5844234818262412,-0.5844234818262412,-0.5844234818262412,-0.5844234818262412,-0.5844234818262412,-0.5844234818262412,-0.5844234818262412,-0.5844234818262412,-0.5844234818262412,-0.5844234818262412,-0.5844234818262412,-0.5844234818262412,-0.5844234818262412,-0.5844234818262412,-0.5844234818262412,-0.5483845162898936,-0.5483845162898936,-0.5483845162898936,-0.5483845162898936,-0.5483845162898936,-0.5483845162898936,-0.5483845162898936,-0.5548201324246453,-0.5625425947473405,-0.5689782108820922,-0.5741266345301419,-0.5779878656914894,-0.5792750581781915,-0.5818490968528369,-0.583136289339539,-0.5844234818262412,-0.5857105011635638,-0.5869975205008865,-0.5882847129875887,-0.5895719054742907,-0.5895719054742907,-0.5895719054742907,-0.5908589248116135,-0.5908589248116135,-0.5908589248116135,-0.5921459441489362,-0.5921459441489362,-0.5921459441489362,-0.5921459441489362,-0.5934331366356383,-0.5934331366356383,-0.5934331366356383,-0.5934331366356383,-0.5947203291223404,-0.5947203291223404,-0.5947203291223404,-0.5947203291223404,-0.5947203291223404,-0.5947203291223404,-0.5947203291223404,-0.5947203291223404,-0.5947203291223404,-0.5947203291223404,-0.5947203291223404,-0.5947203291223404,-0.5947203291223404,-0.5947203291223404,-0.5947203291223404,-0.5947203291223404,-0.5947203291223404,-0.5960073484596631,-0.5960073484596631,-0.5960073484596631,-0.5960073484596631,-0.5960073484596631,-0.5960073484596631,-0.5960073484596631,-0.5960073484596631,-0.5960073484596631,-0.5960073484596631,-0.5960073484596631,-0.5960073484596631,-0.5960073484596631,-0.5960073484596631,-0.5960073484596631,-0.5960073484596631,-0.5960073484596631,-0.5947203291223404,-0.5947203291223404,-0.5908589248116135,-0.5882847129875887,-0.583136289339539,-0.5754136538674646,-0.5689782108820922,-0.5625425947473405,-0.558681363585993,-0.5522457474512411,-0.5509587281139184,-0.5496717087765958,-0.5483845162898936,-0.5470973238031915,-0.5445232851285461,-0.5445232851285461,-0.543236092641844,-0.5419490733045212,-0.5406618808178192,-0.5406618808178192,-0.5406618808178192,-0.5406618808178192,-0.5406618808178192,-0.5406618808178192,-0.5393748614804964,-0.5393748614804964,-0.5393748614804964,-0.5393748614804964,-0.5393748614804964,-0.5393748614804964,-0.5393748614804964,-0.5393748614804964,-0.5393748614804964,-0.5393748614804964,-0.5393748614804964,-0.5393748614804964,-0.5393748614804964,-0.5393748614804964,-0.5393748614804964,-0.5393748614804964,-0.5393748614804964,-0.5393748614804964,-0.5393748614804964,-0.5393748614804964,-0.5393748614804964,-0.5393748614804964,-0.5393748614804964,-0.5393748614804964,-0.5393748614804964,-0.5393748614804964,-0.5393748614804964,-0.5393748614804964,-0.5393748614804964,-0.5393748614804964,-0.5393748614804964,-0.5393748614804964,-0.5393748614804964,-0.5393748614804964,-0.5393748614804964,-0.5393748614804964,-0.5393748614804964,-0.5393748614804964,-0.5393748614804964,-0.5393748614804964,-0.5393748614804964,-0.5393748614804964,-0.5393748614804964,-0.5393748614804964,-0.5393748614804964,-0.5393748614804964,-0.5393748614804964,-0.5393748614804964,-0.5393748614804964,-0.5393748614804964,-0.5393748614804964,-0.5393748614804964,-0.5393748614804964,-0.5393748614804964,-0.5393748614804964,-0.5393748614804964,-0.5393748614804964,-0.5393748614804964,-0.5393748614804964,-0.5393748614804964,-0.5393748614804964,-0.5393748614804964,-0.5393748614804964,-0.5393748614804964,-0.5393748614804964,-0.5393748614804964,-0.5393748614804964,-0.5393748614804964,-0.5393748614804964,-0.5393748614804964,-0.5393748614804964,-0.5393748614804964,-0.5393748614804964,-0.5393748614804964,-0.5393748614804964,-0.5393748614804964,-0.5393748614804964,-0.5393748614804964,-0.5329392453457447,-0.5213553787123227,-0.5174939744015957,-0.5123455507535462,-0.5084843195921985,-0.5020488766068263,-0.4981874722960993,-0.4917520293107269,-0.4866036056626773,-0.4750197390292553,-0.46729710355718085,-0.4608616605718085,-0.4518518326130319,-0.4428421778036348,-0.43511945575687055,-0.4248226084607713,-0.4145258477393617,-0.40422900044326243,-0.3939321531471631,-0.3836353058510638,-0.3759127569536791,-0.3617546784962323,-0.3398738779920213,-0.32442860704787235,-0.2961124501329787,-0.2549250609485816,-0.2343315395057624,-0.19829257396941488,-0.15839246384640956,-0.1249277967087766,-0.06829530972960993,-0.009088524351728723,0.04883106853945036,0.08487003407579788,0.13249277967087766,0.17625429410460994,0.20457053759419327,0.2444707342918883,0.2779354014295213,0.31140006856715424,0.3422905238807624,0.37060676737034576,0.3873391442265071,0.4027843285959663,0.42852640354886967,0.4388232075576241,0.4516942666777482,0.46070396477449027,0.4619910273991578,0.465852345135195,0.4710008120705895,0.48001051016733154,0.490307314176086,0.49931709884751774,0.5044654359208777,0.5134751773049645,0.5173364950410018,0.521197812777039,0.5250591305130763,0.5263462364250886,0.5289204049617686,0.530207510873781,0.5314946167857935,0.5327817226978059,0.5353559345218307,0.536643040433843,0.5379301463458555,0.5379301463458555,0.5392172522578679,0.5392172522578679,0.5392172522578679,0.5392172522578679,0.5392172522578679,0.5392172522578679,0.5392172522578679,0.5392172522578679,0.5405043148825355,0.5443656326185727,0.5482269503546099,0.5559495858266844,0.563672178011414,0.5688206016594637,0.5752560879321809,0.5842658293162677,0.5945626766123671,0.6035723747091091]","[1,1,1,0,0,0,0,0,0,0,0,0,0,0,0,0,0,0,0,0,0,0,0,0,0,0,0,0,0,0,0,0,0,0,0,0,0,0,0,0,0,0,0,0,0,0,0,0,0,0,0,0,0,0,0,0,0,0,0,0,0,0,0,0,0,0,0,0,0,0,0,0,0,0,0,0,0,0,0,0,0,0,0,0,0,0,0,0,0,0,0,0,0,0,0,0,0,0,0,0,0,0,0,0,0,0,0,0,0,0,0,0,0,0,0,0,0,0,0,0,0,0,0,0,0,0,0,0,0,0,0,0,0,0,0,0,0,0,0,0,0,0,0,0,0,0,0,0,0,0,0,0,0,0,0,0,0,0,0,0,0,0,0,0,0,0,0,0,0,0,0,0,0,0,0,0,0,0,0,0,0,0,0,0,0,0,0,0,0,0,0,0,0,0,0,0,0,0,0,0,0,0,0,0,0,0,0,0,0,0,0,0,0,0,0,0,0,0,0,0,0,0,0,0,0,0,0,0,0,0,0,0,0,0,0,0,0,0,0,0,0,0,0,0,0,0,0,0,0,0,0,0,0,0,0,0,0,0,0,0,0,0,0,0,0,0,0,0,0,0,0,0,0,0,0,0,0,0,0,0,0,0,0,0,0,0,0,0,0,0,0,0,0,0,0,0,0,0,0,0,0,0,0,0,0,0,0,0,0,0,0,0,0,0,0,0,0,0,0,0,0,0,0,0,0,0,0,0,0,0,0,0,0,0,0,0,0,0,0,0,0,0,0,0,0,0,0,0,0,0,0,0,0,0,0,0,0,0,0,0,0,0,0,0,0,0,0,0,0,0,0,0,0,0,0,0,0,0,0,0,0,0,0,0,0,0,0,0,0,0,0,0,0,0,0,0,0,0,0,0,0,0,0,0,0,0,0,0,0,0,0,0,0,0,0,0,0,0,0,0,0,0,0,0,0,0,0,0,0,0,0,0,0,0,0,0,0,0,0,0,0,0,0,0,0,0,0,0,0,0,0,0,0,0,0,1,1,1,1,1,1,1,1,0,0,0,0,0,0,0,0,0,0,0,0,0,0,0,0,0,0,0,0,0,0,0,0,0,0,0,0,0,0,0,0,0,0,0,0,0,0,0,0,0,0,0,0,0,0,0,0,0,0,0,0,0,0,0,0,0,0,0,0,0,0,0,0,0,0,0,0,0,0,0,0,0,0,0,0,0,0,0,0,0,0,0,0,0,0,0,0,0,0,0,0,1,1,1,1,1,1,1,1,1,1,1,1,1,1,1,1,1,1,1,1,1,1,1,1,1,1,1,1,1,1,1,1,1,1,1,1,1,1,1,1,1,1,1,1,1,1,1,1,1,1,1,1,1,1,1,1,1,1,1,1,1,1,1,1,1,1,1,1,1,1,1,1,1,1,1,1,1,1,1,1,1,1,1,1,1,1,1,1,1,1,1,1,1,1,1,1,1,1,1,1,1,1,1,1,1,1,1,1,1,1,1,1,1,1,1,1,1,1,1,1,1,1,1,1,1,1,1,1,1,1,1,1,1,1,1,1,1,1,1,1,1,1,1,1,1,1,1,1,1,1,1,1,1,1,1,1,1,1,1,1,1,1,1,1,1,1,1,1,1,1,1,1,1,1,1,1,1,1,1,1,1,1,1,1,1,1,1,1,1,1,1,1,1,1,1,1,1,1,1,1,1,1,1,1,1,1,1,1,1,1,1,1,1,1,1,1,1,1,1,1,1,1,1,1,1,1,1,1,1,1,1,1,1,1,1,1,1,1,1,1,1,1,1,1,1,1,1,1,1,1,1,1,1,1,1]","[0,0,0,0,0,0,0,0,0,0,0,0,0,0,0,0,0,0,0,0,0,0,0,0,0,0,0,0,0,0,0,0,0,0,0,0,0,0,0,0,0,0,0,0,0,0,0,0,0,0,0,0,0,0,0,0,0,0,0,0,0,0,0,0,0,0,0,0,0,0,0,0,0,0,0,0,0,0,0,0,0,0,0,0,0,0,0,0,0,0,0,0,0,0,0,0,0,0,0,0,0,0,0,0,0,0,0,0,0,0,0,0,0,0,0,0,0,0,0,0,0,0,0,0,0,0,0,0,0,0,0,0,0,0,0,0,0,0,0,0,0,0,0,0,0,0,0,0,0,0,0,0,0,0,0,0,0,0,0,0,0,0,0,0,0,0,0,0,0,0,0,0,0,0,0,0,0,0,0,0,0,0,0,0,0,0,0,0,0,0,0,0,0,0,0,0,0,0,0,0,0,0,0,0,0,0,0,0,0,0,0,0,0,0,0,0,0,0,0,0,0,0,0,0,0,0,0,0,0,0,0,0,0,0,0,0,0,0,0,0,0,0,0,0,0,0,0,0,0,0,0,0,0,0,0,0,0,0,0,0,0,0,0,0,0,0,0,0,0,0,0,0,0,0,0,0,0,0,0,0,0,0,0,0,0,0,0,0,0,0,0,0,0,0,0,0,0,0,0,0,0,0,0,0,0,0,0,0,0,0,0,0,0,0,0,0,0,0,0,0,0,0,0,0,0,0,0,0,0,0,0,0,0,0,0,0,0,0,0,0,0,0,0,0,0,0,0,0,0,0,0,0,0,0,0,0,0,0,0,0,0,0,0,0,0,0,0,0,0,0,0,0,0,0,0,0,0,0,0,0,0,0,0,0,0,0,0,0,0,0,0,0,0,0,0,0,0,0,0,0,0,0,0,0,0,0,0,0,0,0,0,0,0,0,0,0,0,0,0,0,0,0,0,0,0,0,0,0,0,0,0,0,0,0,0,0,0,0,0,0,0,0,0,0,0,0,0,0,0,0,0,0,0,0,0,0,0,0,0,0,0,0,0,0,0,0,0,0,0,0,0,0,0,0,0,0,0,0,0,0,0,0,0,0,0,0,0,0,0,0,0,0,0,0,0,0,0,0,0,0,0,0,0,0,0,0,0,0,0,0,0,0,0,0,0,0,0,0,0,0,0,0,0,0,0,0,0,0,0,0,0,0,0,0,0,0,0,0,0,0,0,0,0,0,0,0,0,0,0,0,0,0,0,0,0,0,0,0,0,0,0,0,0,0,0,0,0,0,0,0,0,0,0,0,0,0,0,0,0,0,0,0,0,0,0,0,0,0,0,0,0,0,0,0,0,0,0,0,0,0,0,0,0,0,0,0,0,0,0,0,0,0,0,0,0,0,0,0,0,0,0,0,0,0,0,0,0,0,0,0,0,0,0,0,0,0,0,0,0,0,0,0,0,0,0,0,0,0,0,0,0,0,0,0,0,0,0,0,0,0,0,0,0,0,0,0,0,0,0,0,0,0,0,0,0,0,0,0,0,0,0,0,0,0,0,0,0,0,0,0,0,0,0,0,0,0,0,0,0,0,0,0,0,0,0,0,0,0,0,0,0,0,0,0,0,0,0,0,0,0,0,0,0,0,0,0,0,0,0,0,0,0,0,0,0,0,0,0,0,0,0,0,0,0,0,0,0,0,0,0,0,0,0,0,0,0,0,0,0,0,0,0,0,0,0,0,0,0,0,0,0,0,0,0,0,0,0,0,0,0,0,0,0,0,0,0,0,0,0,0,0,0,0,0,0,0,0,0,0,0,0,0,0,0,0,0,0,0,0,0]","[0,0,0,0,0,0,0,0,0,0,0,0,0,0,0,0,0,0,0,0,0,0,0,0,0,0,0,0,0,0,0,0,0,0,0,0,0,0,0,0,0,0,0,0,0,0,0,0,0,0,0,0,0,0,0,0,0,0,0,0,0,0,0,0,0,0,0,0,0,0,0,0,0,0,0,0,0,0,0,0,0,0,0,0,0,0,0,0,0,0,0,0,0,0,0,0,0,0,0,0,0,0,0,0,0,0,0,0,0,0,0,0,0,0,0,0,0,0,0,0,0,0,0,0,0,0,0,0,0,0,0,0,0,0,0,0,0,0,0,0,0,0,0,0,0,0,0,0,0,0,0,0,0,0,0,0,0,0,0,0,0,0,0,0,0,0,0,0,0,0,0,0,0,0,0,0,0,0,0,0,0,0,0,0,0,0,0,0,0,0,0,0,0,0,0,0,0,0,0,0,0,0,0,0,0,0,0,0,0,0,0,0,0,0,0,0,0,0,0,0,0,0,0,0,0,0,0,0,0,0,0,0,0,0,0,0,0,0,0,0,0,0,0,0,0,0,0,0,0,0,0,0,0,0,0,0,0,0,0,0,0,0,0,0,0,0,0,0,0,0,0,0,0,0,0,0,0,0,0,0,0,0,0,0,0,0,0,0,0,0,0,0,0,0,0,0,0,0,0,0,0,0,0,0,0,0,0,0,0,0,0,0,0,0,0,0,0,0,0,0,0,0,0,0,0,0,0,0,0,0,0,0,0,0,0,0,0,0,0,0,0,0,0,0,0,0,0,0,0,0,0,0,0,0,0,0,0,0,0,0,0,0,0,0,0,0,0,0,0,0,0,0,0,0,0,0,0,0,0,0,0,0,0,0,0,0,0,0,0,0,0,0,0,0,0,0,0,0,0,0,0,0,0,0,0,0,0,0,0,0,0,0,0,0,0,0,0,0,0,0,0,0,0,0,0,0,0,0,0,0,0,0,0,0,0,0,0,0,0,0,0,0,0,0,0,0,0,0,0,0,0,0,0,0,0,0,0,0,0,0,0,0,0,0,0,0,0,0,0,0,0,0,0,0,0,0,0,0,0,0,0,0,0,0,0,0,0,0,0,0,0,0,0,0,0,0,0,0,0,0,0,0,0,0,0,0,0,0,0,0,0,0,0,0,0,0,0,0,0,0,0,0,0,0,0,0,0,0,0,0,0,0,0,0,0,0,0,0,0,0,0,0,0,0,0,0,0,0,0,0,0,0,0,0,0,0,0,0,0,0,0,0,0,0,0,0,0,0,0,0,0,0,0,0,0,0,0,0,0,0,0,0,0,0,0,0,0,0,0,0,0,0,0,0,0,0,0,0,0,0,0,0,0,0,0,0,0,0,0,0,0,0,0,0,0,0,0,0,0,0,0,0,0,0,0,0,0,0,0,0,0,0,0,0,0,0,0,0,0,0,0,0,0,0,0,0,0,0,0,0,0,0,0,0,0,0,0,0,0,0,0,0,0,0,0,0,0,0,0,0,0,0,0,0,0,0,0,0,0,0,0,0,0,0,0,0,0,0,0,0,0,0,0,0,0,0,0,0,0,0,0,0,0,0,0,0,0,0,0,0,0,0,0,0,0,0,0,0,0,0,0,0,0,0,0,0,0,0,0,0,0,0,0,0,0,0,0,0,0,0,0,0,0,0,0,0,0,0,0,0,0,0,0,0,0,0,0,0,0,0,0,0,0,0,0,0,0,0,0,0,0,0,0,0,0,0,0,0,0,0,0,0,0,0,0,0,0,0,0,0,0,0,0,0,0,0,0,0,0,0,0,0,0,0,0,0,0,0,0,0]","[0.00010000000111176632,0.021600000000034925,0.041500000001178705,0.060500000001411536,0.0816000000013446,0.10260000000016589,0.12410000000090804,0.15190000000075088,0.16270000000076834,0.18330000000059954,0.21330000000131122,0.22429999999991423,0.25340000000142027,0.27590000000054715,0.28960000000006403,0.316899999999805,0.3276999999997656,0.36260000000038417,0.3716000000003987,0.3888999999999214,0.41300000000046566,0.4324000000015076,0.4427000000014232,0.47920000000158325,0.49690000000009604,0.5178000000014435,0.5306000000000495,0.5505000000011933,0.5815000000002328,0.600400000001116,0.6105999999999767,0.6311999999998079,0.6622000000006665,0.6729000000013912,0.7000000000007276,0.7115000000012515,0.7401000000008366,0.7550000000010186,0.7732000000013954,0.7979000000013912,0.809400000000096,0.8273000000008324,0.8445000000010623,0.8623000000006869,0.8803999999999519,0.8978000000006432,0.916800000000876,0.9371000000009531,0.9575000000004366,0.9760999999998603,0.9956000000001382,1.0156000000006316,1.0466000000014901,1.0564000000013039,1.0750000000007276,1.093300000000454,1.1131000000005429,1.1328000000012253,1.1520000000001005,1.1730999999999767,1.191500000000815,1.2105000000010477,1.2317000000002736,1.2503000000015163,1.2824000000000524,1.2924000000002707,1.3196000000007757,1.3316000000013446,1.3489000000008673,1.3667999999997846,1.384200000000419,1.4021000000011554,1.429100000001199,1.4558000000014886,1.472700000000259,1.4940000000005966,1.5144000000000233,1.5252000000000407,1.563000000000045,1.5706000000009226,1.5888000000013562,1.6068000000013853,1.6286000000000058,1.6476000000002387,1.666800000000876,1.6889000000010128,1.7065000000002328,1.7366000000001804,1.7463999999999942,1.7664000000004307,1.7853000000014276,1.8070000000006985,1.834500000000844,1.8641000000006898,1.8898000000008324,1.9079000000001543,1.9302000000007524,1.9513000000006286,1.962100000000646,1.9829000000009387,2.0011000000013155,2.0217000000011467,2.0398000000004686,2.061200000000099,2.079200000000128,2.10910000000149,2.122300000000962,2.141600000000892,2.1617999999999142,2.1820000000006985,2.2013999999999214,2.2226000000009662,2.251800000000003,2.2714000000014494,2.286500000000217,2.310300000001007,2.32090000000062,2.3405000000002474,2.3643000000010943,2.3784000000014203,2.3958000000002357,2.412500000000364,2.4297999999998865,2.4475000000001614,2.4804000000003725,2.485900000001493,2.5050000000010186,2.523400000000038,2.544100000000981,2.5632999999997423,2.5829000000012456,2.603900000000124,2.621399999999994,2.6462000000011017,2.668500000001586,2.704600000000937,2.719600000000355,2.7362000000011903,2.7550000000010186,2.775100000000748,2.7954000000009387,2.814700000000869,2.844200000001365,2.8540000000011787,2.8730000000014115,2.903700000000697,2.924200000001292,2.9351000000006593,2.954100000000892,2.973500000000058,2.992100000001358,3.011000000000422,3.030700000001218,3.0500000000011482,3.0709999999999127,3.0888000000013562,3.109200000000783,3.143100000001141,3.1538000000000466,3.173800000000483,3.196700000000419,3.226700000001074,3.2370000000009895,3.254899999999907,3.2813999999998487,3.2920000000012806,3.3101000000006593,3.3399000000008527,3.3514000000013766,3.3717000000015673,3.390000000001237,3.4134000000012747,3.4459999999999127,3.4566000000013446,3.487700000001496,3.502100000001519,3.5292000000008557,3.5417000000015832,3.5610000000015134,3.5907999999999447,3.6027000000013345,3.6298000000005572,3.641600000000892,3.6613000000015745,3.681400000001304,3.7123000000010506,3.7229999999999563,3.7609000000011292,3.7800999999999476,3.792699999999968,3.8245999999999185,3.8357000000013954,3.8549000000002707,3.8738000000012107,3.8941000000013446,3.914600000000064,3.9332000000013068,3.9547000000002868,3.973200000000361,3.994400000001349,4.014200000001438,4.036600000001272,4.055200000000752,4.0733000000000175,4.093500000000915,4.11410000000069,4.133200000000215,4.157700000001512,4.178200000000231,4.20220000000154,4.228900000000124,4.240200000000186,4.261100000001591,4.292100000000573,4.302600000000837,4.321200000000317,4.341400000001158,4.361399999999719,4.380600000000413,4.400900000000547,4.428100000000995,4.451600000000326,4.466600000001563,4.484000000000378,4.500700000000506,4.51680000000124,4.542800000001023,4.553600000001097,4.571900000000767,4.5922000000009575,4.612100000000282,4.6314000000002125,4.651800000001458,4.683800000000701,4.701200000001279,4.725200000000768,4.735800000000324,4.756800000001078,4.779200000000856,4.795400000000939,4.815099999999802,4.844400000000007,4.854699999999866,4.885700000000725,4.9003000000011525,4.926400000000285,4.936999999999898,4.957500000000437,4.986700000001292,4.999300000001256,5.017700000000332,5.035800000001473,5.053800000001502,5.0737000000008265,5.092400000001362,5.112300000000687,5.142600000001039,5.153200000000652,5.1732000000010885,5.203700000000026,5.215500000000247,5.2348000000001775,5.253200000001016,5.284600000000864,5.306900000001349,5.329400000000589,5.355300000001023,5.374499999999898,5.384500000000116,5.416700000001583,5.43500000000131,5.449099999999817,5.465500000000247,5.485800000000324,5.516400000000431,5.533100000000559,5.54910000000018,5.576600000000326,5.587300000001051,5.614600000000792,5.63270000000017,5.648400000000038,5.66530000000057,5.682099999999991,5.69970000000103,5.723500000000058,5.742400000001055,5.75340000000142,5.775800000001311,5.805600000001505,5.8153000000002635,5.83630000000079,5.857500000000073,5.877599999999802,5.907000000001062,5.9184000000004175,5.947900000001027,5.965100000001257,5.9813000000012835,5.99990000000065,6.027799999999843,6.038300000000163,6.057200000001046,6.077300000000832,6.095500000001209,6.1179000000011,6.134200000000419,6.154599999999789,6.184800000000962,6.19980000000038,6.214400000000751,6.2348000000001775,6.2533000000003085,6.27390000000014,6.30370000000039,6.315599999999961,6.335000000000946,6.371700000001567,6.382600000000821,6.399199999999837,6.42870000000039,6.451399999999921,6.464900000000853,6.485500000000627,6.503200000001016,6.522899999999936,6.554100000001199,6.565200000000914,6.585000000000946,6.604900000000271,6.6239000000005035,6.643200000000434,6.662700000000768,6.684100000000399,6.702400000000068,6.722700000000259,6.742200000000594,6.761700000000985,6.783400000000256,6.802300000001139,6.821800000001531,6.841300000000047,6.860500000000627,6.88130000000092,6.902200000000448,6.920000000000073,6.957000000000278,6.976000000000511,6.999400000000605,7.014000000000976,7.042400000000271,7.053800000001502,7.083700000001102,7.0988000000015745,7.113600000000588,7.131199999999808,7.149400000000185,7.166400000000124,7.185100000000659,7.203400000000329,7.22150000000147,7.241300000001502,7.261599999999817,7.291800000000876,7.302499999999782,7.334000000000799,7.34650000000147,7.365300000001298,7.395599999999831,7.416300000000774,7.430100000001403,7.4466000000010695,7.465500000000247,7.483900000001086,7.50380000000041,7.52270000000135,7.542500000001326,7.561700000000201,7.580400000000736,7.61020000000093,7.621000000001004,7.641300000001195,7.660700000000361,7.680299999999988,7.709000000000799,7.7208000000009065,7.739800000001139,7.77560000000085,7.781900000000007,7.810600000000704,7.83179999999993,7.846199999999953,7.86239999999998,7.882300000001123,7.913900000001377,7.929700000000594,7.9461000000010245,7.963200000000143,7.983700000000681,8.001299999999901,8.031800000000658,8.045900000000984,8.062700000000348,8.090299999999843,8.114199999999983,8.12950000000086,8.145400000001246,8.17410000000018,8.18500000000131,8.204800000001342,8.237100000000282,8.256500000001381,8.26690000000059,8.287000000000262,8.305700000000797,8.32480000000038,8.355300000001023,8.365900000000693,8.388500000000931,8.41580000000073,8.428400000000693,8.44760000000133,8.475000000000364,8.48660000000018,8.515900000000329,8.528800000000047,8.548000000000627,8.56630000000041,8.58640000000014,8.615700000000231,8.628500000000713,8.646300000000338,8.665500000001032,8.684500000001265,8.70430000000124,8.723500000000058,8.743800000000192,8.765000000001237,8.782800000000861,8.803200000000231,8.832900000001246,8.860599999999977,8.875799999999742,8.886599999999817,8.905000000000655,8.92410000000018,8.94520000000017,8.964700000000448,8.995700000001307,9.013300000000527,9.028100000001302,9.044600000001083,9.078400000000329,9.096699999999998,9.112200000001451,9.132100000000776,9.16120000000052,9.241799999999785,9.2770000000001,9.299600000000282,9.322500000000161,9.344900000000052,9.367400000001055,9.393799999999828,9.413300000000163,9.427999999999884,9.443900000000212,9.461100000000442,9.479699999999866,9.506800000001078,9.517100000000937,9.545200000000477,9.564400000001172,9.584800000000541,9.606800000001385,9.62950000000086,9.653000000000247,9.67489999999998,9.687200000000303,9.707800000000134,9.728700000001481,9.748900000000503,9.778299999999945,9.801100000000588,9.822299999999814,9.836000000001093,9.866600000001199,9.888100000000122,9.911500000000217,9.932099999999991,9.95440000000059,9.975400000001116,9.997000000001265,10.019100000001345,10.041500000001179,10.052900000000534,10.071900000000767,10.092000000000553,10.1221000000005,10.144600000001446,10.166700000001583,10.187800000001516,10.21130000000079,10.232300000001544,10.243400000001202,10.265000000001237,10.303499999999929,10.320800000001327,10.342000000000553,10.360400000001391,10.385299999999859,10.397600000000239,10.418999999999812,10.437800000001516,10.469200000001365,10.491500000000087,10.513200000001234,10.534900000000562,10.556400000001304,10.578300000001036,10.59310000000005,10.62840000000142,10.646200000001102,10.668500000001586,10.691800000000512,10.708800000000338,10.73380000000003,10.753700000001118,10.773500000001093,10.795600000001286,10.817899999999952,10.83849999999984,10.86200000000099,10.884000000000015,10.906200000001263,10.927200000000084,10.949099999999817,10.973300000001473,10.992100000001358,11.010400000001027,11.040100000000166,11.063200000000506,11.085100000000239,11.106400000000576,11.127599999999802,11.142100000000937,11.169300000001385,11.190000000000566,11.212600000000748,11.23450000000048,11.257300000001123,11.268700000000536,11.289400000001478,11.320999999999913,11.343500000000915,11.366100000001097,11.38970000000154,11.411500000000217,11.431400000001304,11.444000000001381,11.46520000000055,11.487700000001496,11.521900000001551,11.54320000000007,11.56840000000011,11.592400000001362,11.619800000000396,11.640000000001237,11.664900000001637,11.688400000000911,11.712400000000343,11.736300000000483,11.758700000000317,11.779700000000958,11.8033000000014,11.825300000000425,11.841300000000047,11.8708000000006,11.89420000000058,11.911300000001575,11.944600000000776,11.96810000000005,11.989199999999983,12.012500000000728,12.035300000001428,12.056400000001304,12.07480000000038,12.10100000000051,12.122800000001007,12.144600000001446,12.15730000000076,12.179100000001199,12.211100000000442,12.234900000001232,12.254700000001321,12.27770000000055,12.290399999999863,12.32010000000082,12.340400000000955,12.357600000001241,12.38720000000103,12.398500000001093,12.419800000001544,12.452699999999766,12.463600000001009,12.495700000001307,12.514300000000674,12.535800000001473,12.559000000001106,12.573300000000017,12.607300000001544,12.629000000000815,12.652100000001155,12.67489999999998,12.69680000000153,12.720400000000154,12.743800000000192,12.766200000000026,12.787700000000768,12.8096000000005,12.823300000000017,12.852700000001335,12.874499999999898,12.890000000001237,12.919300000001385,12.941600000000108,12.966500000000394,12.98980000000114,13.014000000000976,13.037500000000364,13.06000000000131,13.085700000001395,13.109700000000885,13.13340000000062,13.155099999999948,13.179100000001199,13.201200000001279,13.222900000000664,13.241500000000087,13.269100000001345,13.293600000000879,13.314900000001217,13.33940000000075,13.361700000001292,13.385299999999859,13.407500000001164,13.431800000000294,13.453199999999924,13.47440000000097,13.490300000001298,13.517400000000634,13.549000000000888,13.563799999999901,13.584300000000496,13.607700000000477,13.622300000000962,13.651499999999942,13.67130000000003,13.689000000000306,13.705100000001039,13.736399999999719,13.757400000000473,13.772100000000194,13.805600000001505,13.825400000001537,13.838400000000547,13.859900000001232,13.89190000000059,13.912800000000061,13.934000000001106,13.95430000000124,13.978900000000124,14.002000000000407,14.01300000000083,14.033900000000301,14.053600000001097,14.074099999999817,14.096300000001065,14.12960000000021,14.152100000001155,14.176000000001295,14.188400000000911,14.218300000000454,14.2408000000014,14.263800000000629,14.27560000000085,14.296900000001187,14.317399999999907,14.340299999999843,14.359600000001535,14.391600000000892,14.415500000001032,14.436499999999796,14.459400000001551,14.482800000001589,14.50550000000112,14.52850000000035,14.551300000000992,14.574400000001333,14.597400000000562,14.621600000000399,14.63839999999982,14.666500000001179,14.678499999999929,14.710500000001048,14.72150000000147,14.754899999999907,14.770900000001404,14.797599999999875,14.817200000001321,14.82930000000124,14.850700000000813,14.882000000001426,14.893500000000131,14.926100000000588,14.937800000001516,14.95850000000064,14.978500000001077,14.999499999999898,15.030900000001566,15.051000000001295,15.071400000000722,15.087000000001353,15.115700000000231,15.12840000000142,15.158300000000906,15.178499999999929,15.201399999999921,15.224500000000262,15.248300000001109,15.26050000000032,15.282600000000457,15.302999999999884,15.336100000000442,15.357500000000073,15.38270000000017,15.401700000000403,15.425200000001496,15.448900000001288,15.470400000000154,15.494700000001046,15.520100000001548,15.543300000001182,15.566700000001163,15.589100000001054,15.614700000000084,15.63410000000107,15.656200000001263,15.680200000000752,15.708000000000538,15.730900000000418,15.75309999999996,15.77599999999984,15.799200000001292,15.820000000001528,15.844200000001365,15.866900000000896,15.889200000001438,15.912500000000364,15.934100000000399,15.95670000000058,15.98070000000007,16.003500000000713,16.028200000000652,16.051000000001295,16.07459999999992,16.09700000000157,16.109900000001232,16.141300000001195,16.163800000000208,16.1862000000001,16.20970000000125,16.23400000000038,16.25760000000082,16.281200000001263,16.30500000000029,16.326500000000976,16.350000000000364,16.372900000000357,16.39980000000105,16.41810000000072,16.441100000000006,16.465000000000146,16.48819999999978,16.510800000000017,16.52310000000034,16.55550000000045,16.57930000000124,16.599500000000262,16.62250000000131,16.64559999999983,16.665600000000268,16.689900000001217,16.71310000000085,16.736000000000786,16.751800000000003,16.768600000001186,16.799800000000687,16.821200000000317,16.83470000000125,16.853600000000426,16.88720000000103,16.911600000001272,16.9359000000004,16.958200000000943,16.98110000000088,17.004899999999907,17.027500000000146,17.04860000000002,17.07160000000107]",17.1519,,17.1519,17.1519,"[0,-0.6]",,17.1519,9.2414,17.1519,"[-0.5,0.7]",7.9105,6.1418,1.7687,9.2414,Rechaza,0,0,0,0,0,1,0,25,Train,Otro,5,3,25,10,,,,,,,,,,,,,,,,,,,,,,,,,,,
,,,,,,,,,,,,,12432880,2021-04-21_09h30.54.723,DictadorBinary,2021.1.4,Linux armv7l,60.07449237,0.788888861,-0.755607962,1,0,0,partition_image,Otro,"[0.788888861208546,0.788888861208546,0.788888861208546,0.788888861208546,0.788888861208546,0.788888861208546,0.788888861208546,0.788888861208546,0.788888861208546,0.7870371293048469,0.7870371293048469,0.7870371293048469,0.7870371293048469,0.7870371293048469,0.7870371293048469,0.7870371293048469,0.7870371293048469,0.7870371293048469,0.7870371293048469,0.7870371293048469,0.7870371293048469,0.7870371293048469,0.7870371293048469,0.7870371293048469,0.7870371293048469,0.7870371293048469,0.7870371293048469,0.7870371293048469,0.7870371293048469,0.7870371293048469,0.7870371293048469,0.7870371293048469,0.7870371293048469,0.7870371293048469,0.7870371293048469,0.7870371293048469,0.7870371293048469,0.7870371293048469,0.7870371293048469,0.7870371293048469,0.7870371293048469,0.7870371293048469,0.7870371293048469,0.7870371293048469,0.7870371293048469,0.7870371293048469,0.7870371293048469,0.7870371293048469,0.7870371293048469,0.7870371293048469,0.7870371293048469,0.7870371293048469,0.7870371293048469,0.7870371293048469,0.7870371293048469,0.7870371293048469,0.7870371293048469,0.7870371293048469,0.7870371293048469,0.7870371293048469,0.7870371293048469,0.7870371293048469,0.7870371293048469,0.7870371293048469,0.7870371293048469,0.7870371293048469,0.7870371293048469,0.7870371293048469,0.7870371293048469,0.7870371293048469,0.7870371293048469,0.7870371293048469,0.7870371293048469,0.7870371293048469,0.7870371293048469,0.7870371293048469,0.7870371293048469,0.7870371293048469,0.7870371293048469,0.7870371293048469,0.7870371293048469,0.7870371293048469,0.7870371293048469,0.7870371293048469,0.7870371293048469,0.7870371293048469,0.7870371293048469,0.7870371293048469,0.7870371293048469,0.7870371293048469,0.7870371293048469,0.7870371293048469,0.7870371293048469,0.7870371293048469,0.7870371293048469,0.7870371293048469,0.7870371293048469,0.7870371293048469,-0.025925990513392855,-0.025925990513392855,-0.025925990513392855,-0.025925990513392855,-0.025925990513392855,-0.025925990513392855,-0.025925990513392855,-0.025925990513392855,-0.025925990513392855,-0.025925990513392855,-0.025925990513392855,-0.025925990513392855,-0.025925990513392855,-0.025925990513392855,-0.025925990513392855,-0.025925990513392855,-0.025925990513392855,-0.025925990513392855,-0.025925990513392855,-0.025925990513392855,-0.025925990513392855,-0.025925990513392855,-0.025925990513392855,-0.025925990513392855,-0.025925990513392855,-0.025925990513392855,-0.025925990513392855,-0.025925990513392855,-0.025925990513392855,-0.025925990513392855,-0.025925990513392855,-0.025925990513392855,-0.025925990513392855,-0.025925990513392855,-0.025925990513392855,-0.025925990513392855,-0.025925990513392855,-0.025925990513392855,-0.025925990513392855,-0.025925990513392855,-0.025925990513392855,-0.025925990513392855,-0.025925990513392855,-0.025925990513392855,-0.025925990513392855,-0.025925990513392855,-0.007407425860969387,-0.007407425860969387,-0.007407425860969387,-0.007407425860969387,-0.007407425860969387,-0.007407425860969387,-0.007407425860969387,-0.007407425860969387,-0.007407425860969387,-0.007407425860969387,-0.007407425860969387,-0.007407425860969387,-0.007407425860969387,-0.024074071767378826,-0.02777778469786352,-0.03148149762834821,-0.03333341637436225,-0.035185210558832905,-0.03703700474330357,-0.03703700474330357,-0.0388889234893176,-0.04259263641980229,-0.04444443060427296,-0.04629634935028699,-0.05000006228077168,-0.05555556939572704,-0.05740742586096939,-0.05925922004544005,-0.06296299525669642,-0.06481472716039541,-0.06481472716039541,-0.06481472716039541,-0.06666670818718112,-0.06666670818718112,-0.06666670818718112,-0.06666670818718112,-0.07037035883689413,-0.07407407176737883,-0.07592586595184948,-0.07777778469786352,-0.07777778469786352,-0.07962970344387756,-0.08148143534757653,-0.08333341637436224,-0.08518521055883291,-0.08518521055883291,-0.08518521055883291,-0.08703700474330357,-0.08703700474330357,-0.08888892348931761,-0.09074071767378826,-0.09074071767378826,-0.09259257413903062,-0.09259257413903062,-0.09259257413903062,-0.09259257413903062,-0.09444443060427296,-0.09629634935028698,-0.09814808125398597,-0.10000006228077168,-0.10370371293048469,-0.1074074258609694,-0.11111113879145408,-0.11481472716039541,-0.12592586595184949,-0.13703700474330358,-0.14259257413903062,-0.15370371293048468,-0.16296299525669644,-0.16666664590640945,-0.17407407176737882,-0.1777777846978635,-0.18703700474330356,-0.19074071767378825,-0.196296349350287,-0.20185185646524234,-0.20925922004544006,-0.21296299525669643,-0.21851856465242347,-0.22222227758290816,-0.2259258659518495,-0.23148143534757654,-0.2388889234893176,-0.246296349350287,-0.25185185646524233,-0.25925922004544005,-0.27037035883689414,-0.27962970344387755,-0.28703700474330357,-0.29444443060427294,-0.29814814353475766,-0.3037037129304847,-0.30740742586096936,-0.3111111387914541,-0.3148148517219388,-0.3166667081871811,-0.31851856465242345,-0.32037042111766584,-0.32037042111766584,-0.32037042111766584,-0.32222221530213646,-0.32222221530213646,-0.32222221530213646,-0.32222221530213646,-0.32222221530213646,-0.32222221530213646,-0.32222221530213646,-0.32222221530213646,-0.32407407176737885,-0.32407407176737885,-0.3277777846978635,-0.3314814976283482,-0.33703706702407527,-0.33888886120854594,-0.34444443060427293,-0.34814814353475765,-0.35185185646524236,-0.3537037129304847,-0.3537037129304847,-0.355555569395727,-0.3574074258609694,-0.3574074258609694,-0.35925928232621174,-0.36111113879145407,-0.36111113879145407,-0.36296299525669645,-0.36296299525669645,-0.36296299525669645,-0.3648148517219388,-0.3666667081871811,-0.3685185646524235,-0.3722222153021365,-0.37407407176737884,-0.3796296411631059,-0.38333335409359054,-0.3851852105588329,-0.38703700474330355,-0.38888886120854593,-0.38888886120854593,-0.38888886120854593,-0.38888886120854593,-0.38888886120854593,-0.38888886120854593,-0.39074071767378826,-0.39074071767378826,-0.39074071767378826,-0.39074071767378826,-0.39074071767378826,-0.39074071767378826,-0.39074071767378826,-0.39074071767378826,-0.39074071767378826,-0.3925925741390306,-0.3925925741390306,-0.394444430604273,-0.39814814353475764,-0.40185185646524235,-0.40555556939572707,-0.41111113879145406,-0.4166667081871811,-0.4185185646524235,-0.4240740717673788,-0.42777778469786354,-0.4333333540935906,-0.4388888612085459,-0.44444443060427297,-0.45,-0.45555556939572706,-0.4611111387914541,-0.46666670818718115,-0.4722222153021365,-0.47962964116310586,-0.4833333540935906,-0.48888889234893174,-0.49259260527941645]","[-0.7556079621010638,-0.7556079621010638,-0.7556079621010638,-0.7556079621010638,-0.7556079621010638,-0.7556079621010638,-0.7556079621010638,-0.7556079621010638,-0.7556079621010638,-0.7671920018838653,-0.7671920018838653,-0.7671920018838653,-0.7671920018838653,-0.7671920018838653,-0.7671920018838653,-0.7671920018838653,-0.7671920018838653,-0.7671920018838653,-0.7671920018838653,-0.7671920018838653,-0.7671920018838653,-0.7671920018838653,-0.7671920018838653,-0.7671920018838653,-0.7671920018838653,-0.7671920018838653,-0.7671920018838653,-0.7671920018838653,-0.7671920018838653,-0.7671920018838653,-0.7671920018838653,-0.7671920018838653,-0.7671920018838653,-0.7671920018838653,-0.7671920018838653,-0.7671920018838653,-0.7671920018838653,-0.7671920018838653,-0.7671920018838653,-0.7671920018838653,-0.7671920018838653,-0.7671920018838653,-0.7671920018838653,-0.7671920018838653,-0.7671920018838653,-0.7671920018838653,-0.7671920018838653,-0.7671920018838653,-0.7671920018838653,-0.7671920018838653,-0.7671920018838653,-0.7671920018838653,-0.7671920018838653,-0.7671920018838653,-0.7671920018838653,-0.7671920018838653,-0.7671920018838653,-0.7671920018838653,-0.7671920018838653,-0.7671920018838653,-0.7671920018838653,-0.7671920018838653,-0.7671920018838653,-0.7671920018838653,-0.7671920018838653,-0.7671920018838653,-0.7671920018838653,-0.7671920018838653,-0.7671920018838653,-0.7671920018838653,-0.7671920018838653,-0.7671920018838653,-0.7671920018838653,-0.7671920018838653,-0.7671920018838653,-0.7671920018838653,-0.7671920018838653,-0.7671920018838653,-0.7671920018838653,-0.7671920018838653,-0.7671920018838653,-0.7671920018838653,-0.7671920018838653,-0.7671920018838653,-0.7671920018838653,-0.7671920018838653,-0.7671920018838653,-0.7671920018838653,-0.7671920018838653,-0.7671920018838653,-0.7671920018838653,-0.7671920018838653,-0.7671920018838653,-0.7671920018838653,-0.7671920018838653,-0.7671920018838653,-0.7671920018838653,-0.7671920018838653,-0.5741266345301419,-0.5741266345301419,-0.5741266345301419,-0.5741266345301419,-0.5741266345301419,-0.5741266345301419,-0.5741266345301419,-0.5741266345301419,-0.5741266345301419,-0.5741266345301419,-0.5741266345301419,-0.5741266345301419,-0.5741266345301419,-0.5741266345301419,-0.5741266345301419,-0.5741266345301419,-0.5741266345301419,-0.5741266345301419,-0.5741266345301419,-0.5741266345301419,-0.5741266345301419,-0.5741266345301419,-0.5741266345301419,-0.5741266345301419,-0.5741266345301419,-0.5741266345301419,-0.5741266345301419,-0.5741266345301419,-0.5741266345301419,-0.5741266345301419,-0.5741266345301419,-0.5741266345301419,-0.5741266345301419,-0.5741266345301419,-0.5741266345301419,-0.5741266345301419,-0.5741266345301419,-0.5741266345301419,-0.5741266345301419,-0.5741266345301419,-0.5741266345301419,-0.5741266345301419,-0.5741266345301419,-0.5741266345301419,-0.5741266345301419,-0.5741266345301419,-0.5844234818262412,-0.5844234818262412,-0.5844234818262412,-0.5844234818262412,-0.5844234818262412,-0.5844234818262412,-0.5844234818262412,-0.5844234818262412,-0.5844234818262412,-0.5844234818262412,-0.5844234818262412,-0.5844234818262412,-0.5844234818262412,-0.5779878656914894,-0.5754136538674646,-0.5715524227061171,-0.5702652302194149,-0.5689782108820922,-0.56769101839539,-0.56769101839539,-0.5664039990580674,-0.5638297872340425,-0.5612555754100177,-0.558681363585993,-0.5548201324246453,-0.5445232851285461,-0.5393748614804964,-0.531652226008422,-0.5252167830230496,-0.5213553787123227,-0.520068359375,-0.5174939744015957,-0.516206955064273,-0.516206955064273,-0.5149199357269504,-0.5136327432402482,-0.5071973002548759,-0.5020488766068263,-0.4981874722960993,-0.49303904864804965,-0.49046500997340425,-0.4866036056626773,-0.48274220135195034,-0.4775937777039007,-0.4737325465425532,-0.4698713153812057,-0.4621486799091312,-0.45571323692375887,-0.44799042830230495,-0.4376937541555851,-0.4299710321088209,-0.4183870789007092,-0.4055161063552748,-0.39650645154587766,-0.3836353058510638,-0.3707643333056294,-0.35660625484818265,-0.34888353280141843,-0.336012560255984,-0.3231415877105496,-0.3089833361037234,-0.2961124501329787,-0.2858155162621897,-0.2677961200687057,-0.2472025120511968,-0.22403469220966313,-0.2085894212655142,-0.18670862076130318,-0.16740211865580673,-0.15581816544769503,-0.1403728945035461,-0.13007622035682623,-0.11205673758865248,-0.10433410211657801,-0.09146321614583333,-0.0760179452016844,-0.06057267425753546,-0.05027582696143617,-0.03740476784131206,-0.02582090120789007,-0.01166264960106383,-0.001365802304964539,0.015366401401817376,0.030811672345966313,0.04625685671542553,0.059127915835549646,0.07972161042774822,0.09902811253324469,0.1157604028147163,0.13249277967087766,0.14150252105496453,0.15437358017508865,0.16467034089649824,0.16981876454454786,0.17754140001662233,0.18011561184064717,0.18268973708998226,0.1839769295766844,0.1839769295766844,0.1839769295766844,0.1852639489140071,0.1852639489140071,0.1852639489140071,0.1852639489140071,0.1852639489140071,0.1852639489140071,0.1852639489140071,0.1852639489140071,0.18655114140070922,0.18655114140070922,0.18912535322473403,0.19298658438608157,0.1981350080341312,0.20070921985815604,0.20457053759419327,0.2084318553302305,0.21229317306626774,0.21486738489029256,0.21615449080230498,0.2187287026263298,0.2200157219636525,0.2213029144503546,0.2225899337876773,0.22387712627437945,0.22645133809840426,0.22773835743572696,0.22902546334773935,0.23288678108377658,0.23674809881981382,0.23932231064383866,0.2457578402039007,0.2547674950132979,0.26249013048537234,0.27536118960549644,0.2869450995262633,0.2933806723736702,0.29852900944703015,0.2998161586463874,0.301103221271055,0.3036774330950798,0.30496458229443707,0.3062516449191046,0.30753875083111704,0.30882585674312946,0.30882585674312946,0.30882585674312946,0.30882585674312946,0.3101129626551418,0.3101129626551418,0.3101129626551418,0.3101129626551418,0.31268717447916666,0.3152613863031915,0.3191226607518839,0.3242710843999335,0.331993719872008,0.33842920614472516,0.35001307277814714,0.362884218472961,0.3770422969304078,0.3847648458277926,0.39763599152260637,0.40535854041999114,0.4169424936281028,0.42852640354886967,0.4426844820063165,0.46070396477449027,0.48001051016733154,0.49159446337544327,0.5121880713929521,0.5327817226978059,0.5559495858266844,0.5701077075714761,0.5894142529643174,0.6087207550698138]","[1,1,1,1,1,1,1,1,1,0,0,0,0,0,0,0,0,0,0,0,0,0,0,0,0,0,0,0,0,0,0,0,0,0,0,0,0,0,0,0,0,0,0,0,0,0,0,0,0,0,0,0,0,0,0,0,0,0,0,0,0,0,0,0,0,0,0,0,0,0,0,0,0,0,0,0,0,0,0,0,0,0,0,0,0,0,0,0,0,0,0,0,0,0,0,0,0,0,1,1,1,1,1,1,1,0,0,0,0,0,0,0,0,0,0,0,0,0,0,0,0,0,0,0,0,0,0,0,0,0,0,0,0,0,0,0,0,0,0,0,0,0,0,0,1,1,1,1,1,1,1,1,1,1,1,1,1,1,1,1,1,1,1,1,1,1,1,1,1,1,1,1,1,1,1,1,1,1,1,1,1,1,1,1,1,1,1,1,1,1,1,1,1,1,1,1,1,1,1,1,1,1,1,1,1,1,1,1,1,1,1,1,1,1,1,1,1,1,1,1,1,1,1,1,1,1,1,1,1,1,1,1,1,1,1,1,1,1,1,1,1,1,1,1,1,1,1,1,1,1,1,1,1,1,1,1,1,1,1,1,1,1,1,1,1,1,1,1,1,1,1,1,1,1,1,1,1,1,1,1,1,1,1,1,1,1,1,1,1,1,1,1,1,1,1,1,1,1,1,1,1,1,1,1,1,1,1,1,1,1,1,1,1,1,1,1,1,1,1]","[0,0,0,0,0,0,0,0,0,0,0,0,0,0,0,0,0,0,0,0,0,0,0,0,0,0,0,0,0,0,0,0,0,0,0,0,0,0,0,0,0,0,0,0,0,0,0,0,0,0,0,0,0,0,0,0,0,0,0,0,0,0,0,0,0,0,0,0,0,0,0,0,0,0,0,0,0,0,0,0,0,0,0,0,0,0,0,0,0,0,0,0,0,0,0,0,0,0,0,0,0,0,0,0,0,0,0,0,0,0,0,0,0,0,0,0,0,0,0,0,0,0,0,0,0,0,0,0,0,0,0,0,0,0,0,0,0,0,0,0,0,0,0,0,0,0,0,0,0,0,0,0,0,0,0,0,0,0,0,0,0,0,0,0,0,0,0,0,0,0,0,0,0,0,0,0,0,0,0,0,0,0,0,0,0,0,0,0,0,0,0,0,0,0,0,0,0,0,0,0,0,0,0,0,0,0,0,0,0,0,0,0,0,0,0,0,0,0,0,0,0,0,0,0,0,0,0,0,0,0,0,0,0,0,0,0,0,0,0,0,0,0,0,0,0,0,0,0,0,0,0,0,0,0,0,0,0,0,0,0,0,0,0,0,0,0,0,0,0,0,0,0,0,0,0,0,0,0,0,0,0,0,0,0,0,0,0,0,0,0,0,0,0,0,0,0,0,0,0,0,0,0,0,0,0,0,0,0,0,0,0,0,0,0,0,0,0,0,0]","[0,0,0,0,0,0,0,0,0,0,0,0,0,0,0,0,0,0,0,0,0,0,0,0,0,0,0,0,0,0,0,0,0,0,0,0,0,0,0,0,0,0,0,0,0,0,0,0,0,0,0,0,0,0,0,0,0,0,0,0,0,0,0,0,0,0,0,0,0,0,0,0,0,0,0,0,0,0,0,0,0,0,0,0,0,0,0,0,0,0,0,0,0,0,0,0,0,0,0,0,0,0,0,0,0,0,0,0,0,0,0,0,0,0,0,0,0,0,0,0,0,0,0,0,0,0,0,0,0,0,0,0,0,0,0,0,0,0,0,0,0,0,0,0,0,0,0,0,0,0,0,0,0,0,0,0,0,0,0,0,0,0,0,0,0,0,0,0,0,0,0,0,0,0,0,0,0,0,0,0,0,0,0,0,0,0,0,0,0,0,0,0,0,0,0,0,0,0,0,0,0,0,0,0,0,0,0,0,0,0,0,0,0,0,0,0,0,0,0,0,0,0,0,0,0,0,0,0,0,0,0,0,0,0,0,0,0,0,0,0,0,0,0,0,0,0,0,0,0,0,0,0,0,0,0,0,0,0,0,0,0,0,0,0,0,0,0,0,0,0,0,0,0,0,0,0,0,0,0,0,0,0,0,0,0,0,0,0,0,0,0,0,0,0,0,0,0,0,0,0,0,0,0,0,0,0,0,0,0,0,0,0,0,0,0,0,0,0,0]","[0.00010000000116860974,0.005600000000470118,0.022200000001305398,0.041600000000528325,0.06260000000116861,0.08410000000014861,0.10620000000022856,0.1251000000011686,0.1463000000004513,0.1700000000001296,0.19779999999997244,0.21760000000000446,0.22800000000103182,0.2658000000011498,0.27040000000135933,0.2898000000005254,0.308900000000051,0.32870000000008304,0.34699999999980946,0.3656000000010522,0.3847000000005778,0.405300000000409,0.4233000000004381,0.4446000000007757,0.47429999999991423,0.49290000000115697,0.5133999999998764,0.5240000000013083,0.5546000000013578,0.5701000000008776,0.5925000000007117,0.6031999999996174,0.6227000000000089,0.6406999999999812,0.6571999999997047,0.6849000000003116,0.7047000000002868,0.7204000000002111,0.73630000000054,0.7532000000010726,0.7728000000007,0.7914000000001238,0.813299999999856,0.8322000000007961,0.8513000000003217,0.8707000000013636,0.8906999999999812,0.9107999999997105,0.9407000000010726,0.9530000000014525,0.9822000000004323,0.9930999999997994,1.0123999999997295,1.043100000000834,1.0539000000008514,1.0753000000004818,1.0923000000003071,1.1121000000003392,1.131000000001336,1.1503000000012662,1.1771000000007916,1.194000000001381,1.215200000000607,1.2456000000002518,1.2561999999998648,1.2746999999999957,1.2941000000010376,1.3132000000005633,1.3317999999999302,1.3509000000013316,1.388100000000179,1.4055000000008704,1.4336000000003537,1.4393000000000598,1.4588999999996872,1.4785000000011337,1.497700000000009,1.517100000000994,1.5464000000011424,1.5576000000000931,1.586699999999837,1.602000000000828,1.6182000000008543,1.6363000000001762,1.6569000000000074,1.686999999999955,1.7021999999997206,1.7183999999998036,1.7365000000009445,1.756500000001381,1.774999999999693,1.7942999999996232,1.8142000000008238,1.843600000000265,1.8543000000009329,1.8747999999996523,1.8937000000005355,1.9135000000006244,1.9377999999996973,1.9672000000010144,2.040300000000684,2.0797000000002868,2.105200000000025,2.1287000000011176,2.150300000001266,2.1695000000000277,2.196299999999667,2.206700000000694,2.225800000000163,2.2533000000003653,2.2731000000003974,2.2924999999996203,2.3034000000007495,2.3242000000009853,2.3540000000012355,2.3682000000008543,2.3927000000003886,2.4035000000003492,2.431200000000956,2.4513000000006286,2.4675000000007117,2.4940000000006535,2.5054000000000656,2.533000000001323,2.5437000000002286,2.5622999999996523,2.584800000000598,2.6013999999995576,2.6336000000010245,2.652700000000607,2.6797000000007074,2.688400000000968,2.7097000000013054,2.7299000000003275,2.7494000000006054,2.76929999999993,2.799300000000642,2.8109999999997513,2.8299000000006913,2.850700000000927,2.887700000001189,2.9058999999998036,2.9279999999998836,2.9495000000006826,2.9680000000008704,2.9966999999997483,3.018900000000997,3.033400000000256,3.0622000000003027,3.073400000001243,3.1027000000013345,3.123999999999853,3.1462000000011017,3.157500000001164,3.178299999999581,3.197900000001084,3.2178999999997018,3.2397000000001412,3.263200000001234,3.297500000000582,3.3180000000011773,3.338900000000706,3.3615000000009445,3.385000000000275,3.40830000000102,3.431800000000351,3.455100000001096,3.4784000000000788,3.499499999999955,3.5303999999997018,3.553100000001052,3.5760000000009313,3.598799999999869,3.6225000000013665,3.6450000000004934,3.66820000000007,3.691300000000467,3.712600000000805,3.7360000000008426,3.7528000000002635,3.7857000000004746,3.806700000001001,3.831000000000188,3.8549999999996203,3.878399999999658,3.9019000000008077,3.9227000000010435,3.945800000001327,3.9675000000007117,3.9839000000011424,4.012200000001087,4.034700000000214,4.056599999999946,4.079999999999984,4.100900000001332,4.124900000000764,4.147500000001003,4.170700000000636,4.192000000000974,4.213900000000706,4.237000000001103,4.26059999999967,4.283900000000415,4.308399999999949,4.3307000000004905,4.353800000000831,4.3773000000002185,4.399300000001006,4.42170000000084,4.44770000000068,4.4676000000000045,4.491100000001154,4.513600000000281,4.5367000000006215,4.559199999999748,4.571799999999769,4.603699999999776,4.6256000000012705,4.647899999999993,4.670700000000636,4.69480000000118,4.71919999999966,4.742000000000246,4.763500000000931,4.7870999999996116,4.809900000000312,4.834300000000496,4.856499999999926,4.879700000001378,4.902299999999798,4.925400000000195,4.947500000000275,4.9703000000008615,4.994800000000396,5.018000000000086,5.0402000000013345,5.062600000001169,5.08520000000135,5.110500000000741,5.134100000001183,5.157400000000109,5.178600000001154,5.201300000000629,5.225000000000421,5.239600000000792,5.268500000000188,5.292199999999923,5.314000000000362,5.330600000001141,5.346800000001224,5.377400000001273,5.399999999999693,5.4147000000012895,5.4320000000006985,5.454900000000691,5.477300000000525,5.51059999999967,5.533999999999651,5.5578000000005545,5.580200000000389,5.6036000000004265,5.6264000000011265,5.649499999999534,5.672500000000582,5.694700000000125,5.7167000000009125,5.739999999999839,5.760900000001243,5.785299999999609,5.808200000001364,5.834000000000799,5.85670000000033,5.879000000000815,5.901200000000358,5.928900000000851,5.9469000000008805,5.964600000001212,6.003399999999658,6.027200000000505,6.05379999999974,6.076000000000931,6.098500000000172,6.115700000000345,6.143500000000188,6.16539999999992,6.189500000000521,6.212700000000098,6.2352000000010435,6.256800000001078,6.286900000001026,6.307100000000048,6.331299999999885,6.345699999999908,6.3734000000004585,6.384600000001285,6.4161000000004265,6.436900000000605,6.4570000000003915,6.4808000000012385,6.501200000000665,6.52319999999969,6.545799999999986,6.569999999999823,6.594400000000007,6.614999999999839,6.636700000000985,6.657199999999705,6.682399999999745,6.703199999999981,6.725500000000466,6.751000000000261,6.775400000000502,6.800100000000498,6.821500000000071,6.844400000000007,6.86800000000045,6.891100000000847,6.913099999999815,6.938299999999856]",6.9898,,6.9898,6.9898,"[0,-0.6]",,6.9898,2.0189,6.9898,"[-0.5,0.7]",4.9709,1.9346,3.0363,2.0189,Rechaza,0,0,1,1,1,1,6,19,Train,Otro,5,3,25,10,,,,,,,,,,,,,,,,,,,,,,,,,,,
,,,,,,,,,,,,,12432880,2021-04-21_09h30.54.723,DictadorBinary,2021.1.4,Linux armv7l,60.07449237,0.761111139,-0.785211312,1,0,0,partition_image,Otro,"[0.7611111387914541,0.7685185646524235,0.7777777224170919,0.7777777224170919,0.7777777224170919,0.7777777224170919,0.7777777224170919,0.7777777224170919,0.7777777224170919,0.7777777224170919,0.7777777224170919,0.7777777224170919,0.7777777224170919,0.7777777224170919,0.7777777224170919,0.7777777224170919,0.7777777224170919,0.7777777224170919,0.7777777224170919,0.7777777224170919,0.7777777224170919,0.7777777224170919,0.7777777224170919,0.7777777224170919,0.7777777224170919,0.7777777224170919,0.7777777224170919,0.7777777224170919,0.7777777224170919,0.7777777224170919,0.7777777224170919,0.7777777224170919,0.7777777224170919,0.7777777224170919,0.7777777224170919,0.7777777224170919,0.7777777224170919,0.7777777224170919,0.7777777224170919,0.7777777224170919,0.7777777224170919,0.7777777224170919,0.7777777224170919,0.7777777224170919,0.7777777224170919,0.7777777224170919,0.7777777224170919,0.7777777224170919,0.7777777224170919,0.7777777224170919,0.7777777224170919,0.7777777224170919,0.7777777224170919,0.7777777224170919,0.7777777224170919,0.7777777224170919,0.7777777224170919,0.7777777224170919,0.7777777224170919,0.7777777224170919,0.7777777224170919,0.7777777224170919,0.7777777224170919,0.7777777224170919,0.7777777224170919,0.7777777224170919,0.7777777224170919,0.7777777224170919,0.7777777224170919,0.7777777224170919,0.7777777224170919,0.7777777224170919,0.7777777224170919,0.7777777224170919,0.7777777224170919,0.7777777224170919,0.7777777224170919,0.7777777224170919,0.7777777224170919,0.7777777224170919,0.7777777224170919,0.7777777224170919,0.7777777224170919,0.7777777224170919,0.7777777224170919,0.7777777224170919,0.7777777224170919,0.7777777224170919,0.7777777224170919,0.7777777224170919,0.7777777224170919,0.7777777224170919,0.7777777224170919,0.7777777224170919,0.7777777224170919,0.7777777224170919,0.7777777224170919,0.7777777224170919,0.7777777224170919,0.7777777224170919,0.7777777224170919,0.7777777224170919,0.7777777224170919,0.7777777224170919,0.7777777224170919,0.7777777224170919,0.7777777224170919,0.7777777224170919,0.7777777224170919,0.7777777224170919,0.7777777224170919,0.7777777224170919,0.7777777224170919,0.7777777224170919,0.7777777224170919,0.7777777224170919,0.7777777224170919,0.7777777224170919,0.7777777224170919,0.7777777224170919,-0.02962970344387755,-0.02962970344387755,-0.02962970344387755,-0.02962970344387755,-0.02962970344387755,-0.02962970344387755,-0.02962970344387755,-0.02962970344387755,-0.02962970344387755,-0.02962970344387755,-0.02962970344387755,-0.02962970344387755,-0.02962970344387755,-0.02962970344387755,-0.02962970344387755,-0.02962970344387755,-0.02962970344387755,-0.02962970344387755,-0.02962970344387755,-0.02962970344387755,-0.02962970344387755,-0.02962970344387755,-0.02962970344387755,-0.02962970344387755,-0.02962970344387755,-0.02962970344387755,-0.02962970344387755,-0.02962970344387755,-0.02962970344387755,-0.02962970344387755,-0.02962970344387755,-0.02962970344387755,-0.02962970344387755,-0.02962970344387755,-0.02962970344387755,-0.02962970344387755,-0.02962970344387755,-0.0388889234893176,-0.0388889234893176,-0.0388889234893176,-0.0388889234893176,-0.0388889234893176,-0.0388889234893176,-0.0388889234893176,-0.0388889234893176,-0.03703700474330357,-0.03703700474330357,-0.03703700474330357,-0.03703700474330357,-0.03703700474330357,-0.035185210558832905,-0.03148149762834821,-0.022222277582908165,-0.012962995256696428,-6.228077168367348e-8,0.014814789441167093,0.027777722417091838,0.051851856465242346,0.06666658362563775,0.08148143534757653,0.09259257413903062,0.10555556939572704,0.12222227758290816,0.1462962870695153,0.17037029655612246,0.19444443060427297,0.21666658362563776,0.24259257413903063,0.2666665836256378,0.28703700474330357,0.30740742586096936,0.32407400948660714,0.3425925741390306,0.3592591577646684,0.37222227758290816,0.4,0.4148147271603954,0.43703712930484695,0.4592592823262117,0.4722221530213648,0.4833334163743622,0.4907405931122449,0.4962962870695153,0.5166667081871811]","[-0.7852113115026595,-0.7774888491799645,-0.7710532330452128,-0.7710532330452128,-0.7697662137078901,-0.7697662137078901,-0.7697662137078901,-0.7697662137078901,-0.7697662137078901,-0.7697662137078901,-0.7697662137078901,-0.7697662137078901,-0.7697662137078901,-0.7697662137078901,-0.7697662137078901,-0.7697662137078901,-0.7697662137078901,-0.7697662137078901,-0.7697662137078901,-0.7697662137078901,-0.7697662137078901,-0.7697662137078901,-0.7697662137078901,-0.7697662137078901,-0.7697662137078901,-0.7697662137078901,-0.7697662137078901,-0.7697662137078901,-0.7697662137078901,-0.7697662137078901,-0.7697662137078901,-0.7697662137078901,-0.7697662137078901,-0.7697662137078901,-0.7697662137078901,-0.7697662137078901,-0.7697662137078901,-0.7697662137078901,-0.7697662137078901,-0.7697662137078901,-0.7697662137078901,-0.7697662137078901,-0.7697662137078901,-0.7697662137078901,-0.7697662137078901,-0.7697662137078901,-0.7697662137078901,-0.7697662137078901,-0.7697662137078901,-0.7697662137078901,-0.7697662137078901,-0.7697662137078901,-0.7697662137078901,-0.7697662137078901,-0.7697662137078901,-0.7697662137078901,-0.7697662137078901,-0.7697662137078901,-0.7697662137078901,-0.7697662137078901,-0.7697662137078901,-0.7697662137078901,-0.7697662137078901,-0.7697662137078901,-0.7697662137078901,-0.7697662137078901,-0.7697662137078901,-0.7697662137078901,-0.7697662137078901,-0.7697662137078901,-0.7697662137078901,-0.7697662137078901,-0.7697662137078901,-0.7697662137078901,-0.7697662137078901,-0.7697662137078901,-0.7697662137078901,-0.7697662137078901,-0.7697662137078901,-0.7697662137078901,-0.7697662137078901,-0.7697662137078901,-0.7697662137078901,-0.7697662137078901,-0.7697662137078901,-0.7697662137078901,-0.7697662137078901,-0.7697662137078901,-0.7697662137078901,-0.7697662137078901,-0.7697662137078901,-0.7697662137078901,-0.7697662137078901,-0.7697662137078901,-0.7697662137078901,-0.7697662137078901,-0.7697662137078901,-0.7697662137078901,-0.7697662137078901,-0.7697662137078901,-0.7697662137078901,-0.7697662137078901,-0.7697662137078901,-0.7697662137078901,-0.7697662137078901,-0.7697662137078901,-0.7697662137078901,-0.7697662137078901,-0.7697662137078901,-0.7697662137078901,-0.7697662137078901,-0.7697662137078901,-0.7697662137078901,-0.7697662137078901,-0.7697662137078901,-0.7697662137078901,-0.7697662137078901,-0.7697662137078901,-0.7697662137078901,-0.7697662137078901,-0.5561071517619681,-0.5561071517619681,-0.5561071517619681,-0.5561071517619681,-0.5561071517619681,-0.5561071517619681,-0.5561071517619681,-0.5561071517619681,-0.5561071517619681,-0.5561071517619681,-0.5561071517619681,-0.5561071517619681,-0.5561071517619681,-0.5561071517619681,-0.5561071517619681,-0.5561071517619681,-0.5561071517619681,-0.5561071517619681,-0.5561071517619681,-0.5561071517619681,-0.5561071517619681,-0.5561071517619681,-0.5561071517619681,-0.5561071517619681,-0.5561071517619681,-0.5561071517619681,-0.5561071517619681,-0.5561071517619681,-0.5561071517619681,-0.5561071517619681,-0.5561071517619681,-0.5561071517619681,-0.5561071517619681,-0.5561071517619681,-0.5561071517619681,-0.5561071517619681,-0.5561071517619681,-0.5869975205008865,-0.5869975205008865,-0.5869975205008865,-0.5869975205008865,-0.5805620775155141,-0.5805620775155141,-0.5767008463541666,-0.5741266345301419,-0.5728394420434397,-0.5728394420434397,-0.5715524227061171,-0.5715524227061171,-0.5715524227061171,-0.5702652302194149,-0.5664039990580674,-0.5561071517619681,-0.5458103044658688,-0.5265038023603723,-0.5059101077681738,-0.4917520293107269,-0.464722891733156,-0.44541630305296986,-0.42739690685948584,-0.4080904047539894,-0.3810611806017287,-0.3450223016400709,-0.29868666195700355,-0.24977681044991135,-0.19443134280806737,-0.1403728945035461,-0.08245330161236702,-0.030969324855939718,0.016653593888519502,0.06041502174756206,0.10417653618129433,0.15308638768838653,0.18783816073803192,0.2225899337876773,0.2920935231743129,0.3281324454233156,0.38347782649046985,0.4388232075576241,0.4761492357186392,0.5263462364250886,0.5585237976507093,0.5855529352282801,0.6434725497631316]","[1,1,1,1,1,1,0,0,0,0,0,0,0,0,0,0,0,0,0,0,0,0,0,0,0,0,0,0,0,0,0,0,0,0,0,0,0,0,0,0,0,0,0,0,0,0,0,0,0,0,0,0,0,0,0,0,0,0,0,0,0,0,0,0,0,0,0,0,0,0,0,0,0,0,0,0,0,0,0,0,0,0,0,0,0,0,0,0,0,0,0,0,0,0,0,0,0,0,0,0,0,0,0,0,0,0,0,0,0,0,0,0,0,0,0,0,0,0,0,0,1,1,1,1,1,1,0,0,0,0,0,0,0,0,0,0,0,0,0,0,0,0,0,0,0,0,0,0,0,0,0,0,0,0,0,0,0,1,1,1,1,1,1,1,1,1,1,1,1,1,1,1,1,1,1,1,1,1,1,1,1,1,1,1,1,1,1,1,1,1,1,1,1,1,1,1,1,1,1,1,1,1,1,1]","[0,0,0,0,0,0,0,0,0,0,0,0,0,0,0,0,0,0,0,0,0,0,0,0,0,0,0,0,0,0,0,0,0,0,0,0,0,0,0,0,0,0,0,0,0,0,0,0,0,0,0,0,0,0,0,0,0,0,0,0,0,0,0,0,0,0,0,0,0,0,0,0,0,0,0,0,0,0,0,0,0,0,0,0,0,0,0,0,0,0,0,0,0,0,0,0,0,0,0,0,0,0,0,0,0,0,0,0,0,0,0,0,0,0,0,0,0,0,0,0,0,0,0,0,0,0,0,0,0,0,0,0,0,0,0,0,0,0,0,0,0,0,0,0,0,0,0,0,0,0,0,0,0,0,0,0,0,0,0,0,0,0,0,0,0,0,0,0,0,0,0,0,0,0,0,0,0,0,0,0,0,0,0,0,0,0,0,0,0,0,0,0,0,0,0,0,0,0,0,0,0,0,0,0]","[0,0,0,0,0,0,0,0,0,0,0,0,0,0,0,0,0,0,0,0,0,0,0,0,0,0,0,0,0,0,0,0,0,0,0,0,0,0,0,0,0,0,0,0,0,0,0,0,0,0,0,0,0,0,0,0,0,0,0,0,0,0,0,0,0,0,0,0,0,0,0,0,0,0,0,0,0,0,0,0,0,0,0,0,0,0,0,0,0,0,0,0,0,0,0,0,0,0,0,0,0,0,0,0,0,0,0,0,0,0,0,0,0,0,0,0,0,0,0,0,0,0,0,0,0,0,0,0,0,0,0,0,0,0,0,0,0,0,0,0,0,0,0,0,0,0,0,0,0,0,0,0,0,0,0,0,0,0,0,0,0,0,0,0,0,0,0,0,0,0,0,0,0,0,0,0,0,0,0,0,0,0,0,0,0,0,0,0,0,0,0,0,0,0,0,0,0,0,0,0,0,0,0,0]","[0.0000999999992359335,0.0066999999999666215,0.02930000000014843,0.04539999999906286,0.07369999999900756,0.09729999999944994,0.12119999999958964,0.14749999999912689,0.15899999999965075,0.18540000000029977,0.1993000000002212,0.2232000000003609,0.23369999999891888,0.25169999999889114,0.2693999999991661,0.3027999999994222,0.3088999999999942,0.3267999999989115,0.34369999999950096,0.3639000000002852,0.38379999999961,0.4038999999992825,0.42410000000018044,0.44449999999966394,0.4650999999994383,0.4841999999989639,0.5136999999995169,0.5257000000001995,0.5546999999987747,0.5658000000003085,0.5843999999997322,0.6039999999993597,0.6232999999992899,0.6522000000004482,0.663300000000163,0.6913999999997031,0.7102999999988242,0.7328999999990629,0.7539999999989959,0.7644000000000233,0.7842999999993481,0.8035999999992782,0.8233000000000175,0.8531999999996174,0.8637999999991735,0.8843999999990046,0.9033999999992375,0.9228999999995153,0.9444000000003143,0.9619999999995343,0.9825000000001296,1.0010000000002037,1.0208999999995285,1.040499999999156,1.0699000000004162,1.0812000000005355,1.099899999999252,1.117000000000246,1.1361999999990076,1.1528999999991356,1.172599999999818,1.1988000000001762,1.2099999999991269,1.2295999999987544,1.2492999999994936,1.2801999999992404,1.292299999999159,1.3123999999988882,1.331399999999121,1.3514999999987936,1.3699999999989814,1.3894000000000233,1.4103999999988446,1.4290000000000873,1.4473999999990497,1.4781000000002678,1.4912999999996828,1.5106999999989057,1.5283999999992375,1.5594999999993888,1.5810000000000741,1.5918999999994412,1.6137999999991735,1.6435999999994237,1.6577999999990425,1.6760999999988258,1.7049999999999272,1.7160999999995852,1.7366000000001804,1.7551999999996042,1.7831999999997947,1.8051999999988766,1.8285999999989144,1.8408999999992375,1.8613000000004831,1.8794999999990978,1.9103999999988446,1.9239999999990687,1.949800000000323,1.9702999999990425,1.9815999999991618,2.012199999999268,2.0252000000000407,2.053200000000288,2.0648999999994544,2.084499999999082,2.1204999999990264,2.1273999999994544,2.1458999999995285,2.1657999999988533,2.186099999998987,2.2044999999998254,2.227999999999156,2.2445999999999344,2.2656999999999243,2.285200000000316,2.3042000000005487,2.3343000000004395,2.344600000000355,2.3636999999998807,2.3995999999987703,2.416900000000169,2.480599999998958,2.514999999999418,2.528599999999585,2.5486000000000786,2.5733000000000175,2.587999999999738,2.6067000000002736,2.6327000000001135,2.65309999999954,2.6635999999998603,2.684499999999389,2.70509999999922,2.7255999999997016,2.744800000000396,2.764499999999259,2.785200000000316,2.8046999999987747,2.8351999999995314,2.8570999999992637,2.8734000000004016,2.8888999999998646,2.907499999999345,2.930899999999383,2.958099999999831,2.979299999999057,2.990799999999581,3.011500000000524,3.031600000000253,3.061700000000144,3.084100000000035,3.1059000000004744,3.127599999999802,3.1574000000000524,3.175100000000384,3.1968999999990046,3.2247999999999593,3.248199999999997,3.259200000000419,3.2800999999999476,3.302299999999377,3.3338999999996872,3.3580999999995242,3.38029999999884,3.4028999999991356,3.4261999999998807,3.4413000000003535,3.469100000000253,3.4993999999987864,3.5177999999996246,3.5371999999988475,3.5599999999995475,3.583699999999226,3.607899999999063,3.6312999999991007,3.6471999999994296,3.6793999999990774,3.70299999999952,3.726599999999962,3.772399999999834,3.779499999998677,3.804599999999482,3.831899999999166,3.8545999999987544,3.881100000000572,3.9056000000001063,3.931800000000237,3.9560999999994237,3.9786999999996624,4.00180000000006,4.027099999999336,4.0504000000000815,4.072500000000218,4.091500000000451,4.117799999999988,4.14010000000053,4.164499999998952,4.186400000000447,4.209399999999732,4.231599999999162,4.242599999999641,4.266200000000083,4.296800000000076]",4.3474,,4.3474,4.3474,"[0,-0.6]",,4.3474,,,,1.8799,1.2625,0.6174,2.4675,Acepta,0,0,2,2,2,1,13,12,Train,Otro,5,3,25,10,2.4675,4.3474,"[0.5,0.7]",,,,,,,,,,,,,,,,,,,,,,,,
