Mouse_Instructions.x,Mouse_Instructions.y,Mouse_Instructions.leftButton,Mouse_Instructions.midButton,Mouse_Instructions.rightButton,Mouse_Instructions.clicked_name,instruccioness.thisRepN,instruccioness.thisTrialN,instruccioness.thisN,instruccioness.thisIndex,instruccioness.ran,Instrucciones,Texto,Cedula,date,expName,psychopyVersion,OS,frameRate,partition_mouse.x,partition_mouse.y,partition_mouse.leftButton,partition_mouse.midButton,partition_mouse.rightButton,partition_mouse.clicked_name,rolotro,tracking_2.x,tracking_2.y,tracking_2.leftButton,tracking_2.midButton,tracking_2.rightButton,tracking_2.time,tracking_2.stopped,tracking_2.startedR,tracking_2.stoppedR,start_region_2.stopped,start_region_2.pos,Question_2.started,Question_2.stopped,O1.startedR,O1.stoppedR,O1_choiceR.pos,Total_Time,Resp_Time,Mov_Time,Time_to_start,Choice,liftedFinger,Trainingg.thisRepN,Trainingg.thisTrialN,Trainingg.thisN,Trainingg.thisIndex,Trainingg.ran,Ud,Otro,Type,Rol_otro,Otro_transf,Multiplicador,Ud_manos,fichas_base,fin_entrenamiento_mouse.x,fin_entrenamiento_mouse.y,fin_entrenamiento_mouse.leftButton,fin_entrenamiento_mouse.midButton,fin_entrenamiento_mouse.rightButton,fin_entrenamiento_mouse.clicked_name,mouse2.x,mouse2.y,mouse2.leftButton,mouse2.midButton,mouse2.rightButton,mouse2.clicked_name,O0.startedR,O0.stoppedR,O0_choiceR.pos,trials.thisRepN,trials.thisTrialN,trials.thisN,trials.thisIndex,trials.ran,trials_2.thisRepN,trials_2.thisTrialN,trials_2.thisN,trials_2.thisIndex,trials_2.ran,TextoR,Pregunta
0.764814852,-0.800656582,1,0,0,next_button,0,0,0,0,1,1,"Imagine que usted y otra persona reciben cada uno 10 fichas. Cada una vale $3.000 pesos. 

Oprima la flecha para continuar.",20858232,2021-04-21_09h51.34.576,DictadorBinary,2021.1.4,Linux armv7l,60.07449237,,,,,,,,,,,,,,,,,,,,,,,,,,,,,,,,,,,,,,,,,,,,,,,,,,,,,,,,,,,,,,,,,,,,,
0.783333167,-0.801943775,1,0,0,next_button,0,1,1,1,1,2,"La otra persona le puede transferir a usted de 0 a 10 fichas. Esas fichas se triplican una vez se transfieren a usted.

Oprima la flecha para continuar",20858232,2021-04-21_09h51.34.576,DictadorBinary,2021.1.4,Linux armv7l,60.07449237,,,,,,,,,,,,,,,,,,,,,,,,,,,,,,,,,,,,,,,,,,,,,,,,,,,,,,,,,,,,,,,,,,,,,
0.755555445,-0.828972913,1,0,0,next_button,0,2,2,2,1,3,"Por ejemplo, si la otra persona le transfiere 2 fichas, se convierten en 6 fichas (2x3). Así, usted tendría en sus manos 16 fichas en total.

Oprima la flecha para continuar",20858232,2021-04-21_09h51.34.576,DictadorBinary,2021.1.4,Linux armv7l,60.07449237,,,,,,,,,,,,,,,,,,,,,,,,,,,,,,,,,,,,,,,,,,,,,,,,,,,,,,,,,,,,,,,,,,,,,
0.788888861,-0.762043578,1,0,0,next_button,0,3,3,3,1,4,"Su tarea es dividir las fichas que quedan en sus manos entre los dos.

Oprima la flecha para continuar",20858232,2021-04-21_09h51.34.576,DictadorBinary,2021.1.4,Linux armv7l,60.07449237,,,,,,,,,,,,,,,,,,,,,,,,,,,,,,,,,,,,,,,,,,,,,,,,,,,,,,,,,,,,,,,,,,,,,
0.796296287,-0.819963085,1,0,0,next_button,0,4,4,4,1,5,"Ninguno sabe el nombre del otro. 

Oprima la flecha para continuar.",20858232,2021-04-21_09h51.34.576,DictadorBinary,2021.1.4,Linux armv7l,60.07449237,,,,,,,,,,,,,,,,,,,,,,,,,,,,,,,,,,,,,,,,,,,,,,,,,,,,,,,,,,,,,,,,,,,,,
0.787037129,-0.782637273,1,0,0,next_button,0,5,5,5,1,6,"En cada turno, muevase al cuadro inferior para que aparezcan las cantidades. Desplacese a la cantidad que le daria al OTRO. 

Oprima la flecha para continuar.",20858232,2021-04-21_09h51.34.576,DictadorBinary,2021.1.4,Linux armv7l,60.07449237,,,,,,,,,,,,,,,,,,,,,,,,,,,,,,,,,,,,,,,,,,,,,,,,,,,,,,,,,,,,,,,,,,,,,
0.796296287,-0.787785696,1,0,0,next_button,0,6,6,6,1,7,"Si esta en su celular o una tableta, desplace su dedo por la pantalla mientras escoge.

Oprima la flecha para continuar.",20858232,2021-04-21_09h51.34.576,DictadorBinary,2021.1.4,Linux armv7l,60.07449237,,,,,,,,,,,,,,,,,,,,,,,,,,,,,,,,,,,,,,,,,,,,,,,,,,,,,,,,,,,,,,,,,,,,,
0.735185148,-0.790359735,1,0,0,next_button,0,7,7,7,1,8,"Empecemos con un entrenamiento corto para familiarizarse. 

Oprima la flecha para continuar.",20858232,2021-04-21_09h51.34.576,DictadorBinary,2021.1.4,Linux armv7l,60.07449237,,,,,,,,,,,,,,,,,,,,,,,,,,,,,,,,,,,,,,,,,,,,,,,,,,,,,,,,,,,,,,,,,,,,,
,,,,,,,,,,,,,20858232,2021-04-21_09h51.34.576,DictadorBinary,2021.1.4,Linux armv7l,60.07449237,0.790740593,-0.789072716,1,0,0,partition_image,Otro,"[0.7907405931122449,0.7907405931122449,0.7907405931122449,0.7907405931122449,0.7907405931122449,0.7907405931122449,0.7907405931122449,0.7907405931122449,0.7907405931122449,0.7907405931122449,0.7907405931122449,0.7907405931122449,0.7907405931122449,0.7907405931122449,0.7907405931122449,0.7907405931122449,0.7907405931122449,0.7907405931122449,0.7907405931122449,0.7907405931122449,0.7907405931122449,0.7907405931122449,0.7907405931122449,0.7907405931122449,0.7907405931122449,0.7907405931122449,0.7907405931122449,0.7907405931122449,0.7907405931122449,0.7907405931122449,0.7907405931122449,0.7907405931122449,0.7907405931122449,0.7907405931122449,0.7907405931122449,0.7907405931122449,0.7907405931122449,0.7907405931122449,0.7907405931122449,0.7907405931122449,0.7907405931122449,0.7907405931122449,0.7907405931122449,0.7907405931122449,0.7907405931122449,0.7907405931122449,0.7907405931122449,0.7907405931122449,0.7907405931122449,0.7907405931122449,0.7907405931122449,0.7907405931122449,0.7907405931122449,0.7907405931122449,0.7907405931122449,0.7907405931122449,0.7907405931122449,0.7907405931122449,0.7907405931122449,0.7907405931122449,0.7907405931122449,0.7907405931122449,0.7907405931122449,0.7907405931122449,0.7907405931122449,0.7907405931122449,0.7907405931122449,0.7907405931122449,0.7907405931122449,0.7907405931122449,0.7907405931122449,0.7907405931122449,0.7907405931122449,0.7907405931122449,0.7907405931122449,0.7907405931122449,0.7907405931122449,0.7907405931122449,0.7907405931122449,0.7907405931122449,0.7907405931122449,0.7907405931122449,0.7907405931122449,0.7907405931122449,0.7907405931122449,0.7907405931122449,0.7907405931122449,0.7907405931122449,0.7907405931122449,0.7907405931122449,0.7907405931122449,0.7907405931122449,0.7907405931122449,0.7907405931122449,0.7907405931122449,0.7907405931122449,0.7907405931122449,0.7907405931122449,0.7907405931122449,0.7907405931122449,0.7907405931122449,0.7907405931122449,0.7907405931122449,0.7907405931122449,0.7907405931122449,0.7907405931122449,0.7907405931122449,0.7907405931122449,0.7907405931122449,0.7907405931122449,0.7907405931122449,0.7907405931122449,0.7907405931122449,0.7907405931122449,0.7907405931122449,0.7907405931122449,0.7907405931122449,0.7907405931122449,0.7907405931122449,0.7907405931122449,0.7907405931122449,0.7907405931122449,0.7907405931122449,0.7907405931122449,0.7907405931122449,0.7907405931122449,0.7907405931122449,0.7907405931122449,0.7907405931122449,0.7907405931122449,0.7907405931122449,0.7907405931122449,0.7907405931122449,0.7907405931122449,0.7907405931122449,0.7907405931122449,0.7907405931122449,0.7907405931122449,0.7907405931122449,0.7907405931122449,0.7907405931122449,0.7907405931122449,0.7907405931122449,0.7907405931122449,0.7907405931122449,0.7907405931122449,0.7907405931122449,0.7907405931122449,0.7907405931122449,0.7907405931122449,0.7907405931122449,0.7907405931122449,0.7907405931122449,0.7907405931122449,0.7907405931122449,0.7907405931122449,0.7907405931122449,0.7907405931122449,0.7907405931122449,0.7907405931122449,0.7907405931122449,0.7907405931122449,0.7907405931122449,0.7907405931122449,0.7907405931122449,0.7907405931122449,0.7907405931122449,0.7907405931122449,0.7907405931122449,0.7907405931122449,0.7907405931122449,0.7907405931122449,0.7907405931122449,0.7907405931122449,0.7907405931122449,0.7907405931122449,0.7907405931122449,0.7907405931122449,0.7907405931122449,0.7907405931122449,0.7907405931122449,0.7907405931122449,0.7907405931122449,0.7907405931122449,0.7907405931122449,0.7907405931122449,0.7907405931122449,0.7907405931122449,0.7907405931122449,0.7907405931122449,0.7907405931122449,0.7907405931122449,0.7907405931122449,0.7907405931122449,0.7907405931122449,0.7907405931122449,0.7907405931122449,0.7907405931122449,0.7907405931122449,0.7907405931122449,0.7907405931122449,0.7907405931122449,0.7907405931122449,0.7907405931122449,0.7907405931122449,0.7907405931122449,0.7907405931122449,0.7907405931122449,0.7907405931122449,0.7907405931122449,0.7907405931122449,0.7907405931122449,0.7907405931122449,0.7907405931122449,0.7907405931122449,0.7907405931122449,0.7907405931122449,0.7907405931122449,0.7907405931122449,0.7907405931122449,0.7907405931122449,0.7907405931122449,0.7907405931122449,0.7907405931122449,0.7907405931122449,0.7907405931122449,0.7907405931122449,0.7907405931122449,0.7907405931122449,0.7907405931122449,0.7907405931122449,0.7907405931122449,0.7907405931122449,0.7907405931122449,0.7907405931122449,0.7907405931122449,0.7907405931122449,0.7907405931122449,0.7907405931122449,0.7907405931122449,0.7907405931122449,0.7907405931122449,0.7907405931122449,0.7907405931122449,0.7907405931122449,0.7907405931122449,0.7907405931122449,0.7907405931122449,0.7907405931122449,0.7907405931122449,0.7907405931122449,0.7907405931122449,0.7907405931122449,0.7907405931122449,0.7907405931122449,0.7907405931122449,0.7907405931122449,0.7907405931122449,0.7907405931122449,0.7907405931122449,0.7907405931122449,0.7907405931122449,0.7907405931122449,0.7907405931122449,0.7907405931122449,0.7907405931122449,0.7907405931122449,0.7907405931122449,0.7907405931122449,0.7907405931122449,0.7907405931122449,0.7907405931122449,0.7907405931122449,0.7907405931122449,0.7907405931122449,0.7907405931122449,0.7907405931122449,0.7907405931122449,0.7907405931122449,0.7907405931122449,0.7907405931122449,0.7907405931122449,0.7907405931122449,0.7907405931122449,0.7907405931122449,0.7907405931122449,0.7907405931122449,0.7907405931122449,0.7907405931122449,0.7907405931122449,0.7907405931122449,0.7907405931122449,0.7907405931122449,0.7907405931122449,0.7907405931122449,0.7907405931122449,0.7907405931122449,0.7907405931122449,0.7907405931122449,0.7907405931122449,0.7907405931122449,0.7907405931122449,0.7907405931122449,0.7907405931122449,0.7907405931122449,0.7907405931122449,0.7907405931122449,0.7907405931122449,0.7907405931122449,0.7907405931122449,0.7907405931122449,0.7907405931122449,0.7907405931122449,0.7907405931122449,0.7907405931122449,0.7907405931122449,0.7907405931122449,0.7907405931122449,0.7907405931122449,0.7907405931122449,0.7907405931122449,0.7907405931122449,0.7907405931122449,0.7907405931122449,0.7907405931122449,0.7907405931122449,0.7907405931122449,0.7907405931122449,0.7907405931122449,0.7907405931122449,0.7907405931122449,0.7907405931122449,0.7907405931122449,0.7907405931122449,0.7907405931122449,0.7907405931122449,0.7907405931122449,0.7907405931122449,0.7907405931122449,0.7907405931122449,0.7907405931122449,0.7907405931122449,0.7907405931122449,0.7907405931122449,0.7907405931122449,0.7907405931122449,0.7907405931122449,0.7907405931122449,0.7907405931122449,0.7907405931122449,0.7907405931122449,0.7907405931122449,0.7907405931122449,0.7907405931122449,0.7907405931122449,0.7907405931122449,0.7907405931122449,0.7907405931122449,0.7907405931122449,0.7907405931122449,0.7907405931122449,0.7907405931122449,0.7907405931122449,0.7907405931122449,0.7907405931122449,0.7907405931122449,0.7907405931122449,0.7907405931122449,0.7907405931122449,0.7907405931122449,0.7907405931122449,0.7907405931122449,0.7907405931122449,0.7907405931122449,0.7907405931122449,0.7907405931122449,0.7907405931122449,0.7907405931122449,0.7907405931122449,0.7907405931122449,0.7907405931122449,0.7907405931122449,0.7907405931122449,0.7907405931122449,0.7907405931122449,0.7907405931122449,0.7907405931122449,0.7907405931122449,0.7907405931122449,0.7907405931122449,0.7907405931122449,0.7907405931122449,0.7907405931122449,0.7907405931122449,0.7907405931122449,0.7907405931122449,0.7907405931122449,0.7907405931122449,0.7907405931122449,0.7907405931122449,0.7907405931122449,0.7907405931122449,0.7907405931122449,0.7907405931122449,0.7907405931122449,0.7907405931122449,0.7907405931122449,0.7907405931122449,0.7907405931122449,0.7907405931122449,0.7907405931122449,0.7907405931122449,0.7907405931122449,0.7907405931122449,0.7907405931122449,0.7907405931122449,0.7907405931122449,0.7907405931122449,0.7907405931122449,0.7907405931122449,0.7907405931122449,0.7907405931122449,0.7907405931122449,0.7907405931122449,0.7907405931122449,0.7907405931122449,0.7907405931122449,0.7907405931122449,0.7907405931122449,0.7907405931122449,0.7907405931122449,0.7907405931122449,0.7907405931122449,0.7907405931122449,0.7907405931122449,0.7907405931122449,0.7907405931122449,0.7907405931122449,0.7907405931122449,0.7907405931122449,0.7907405931122449,0.7907405931122449,0.7907405931122449,0.7907405931122449,0.7907405931122449,0.7907405931122449,0.7907405931122449,0.7907405931122449,0.7907405931122449,0.7907405931122449,0.7907405931122449,0.7907405931122449,0.7907405931122449,0.7907405931122449,0.7907405931122449,0.7907405931122449,0.7907405931122449,0.7907405931122449,0.7907405931122449,0.7907405931122449,0.7907405931122449,0.7907405931122449,0.7907405931122449,0.7907405931122449,0.7907405931122449,0.7907405931122449,0.7907405931122449,0.7907405931122449,0.7907405931122449,0.7907405931122449,0.7907405931122449,0.7907405931122449,0.02222221530213648,0.02222221530213648,0.02222221530213648,0.02222221530213648,0.02222221530213648,0.02222221530213648,0.02222221530213648,0.02222221530213648,0.02222221530213648,0.02222221530213648,0.02222221530213648,0.02222221530213648,0.02222221530213648,0.02222221530213648,0.02222221530213648,0.02222221530213648,0.02222221530213648,0.02222221530213648,0.02222221530213648,0.02222221530213648,0.02222221530213648,0.02222221530213648,0.02222221530213648,0.02222221530213648,0.02222221530213648,0.02222221530213648,0.02222221530213648,0.02222221530213648,0.02222221530213648,0.02222221530213648,0.02222221530213648,0.02222221530213648,0.02222221530213648,0.02222221530213648,0.02222221530213648,0.02222221530213648,0.02222221530213648,0.02222221530213648,0.02222221530213648,0.02222221530213648,0.02222221530213648,0.02222221530213648,0.02222221530213648,0.02222221530213648,0.02222221530213648,0.02222221530213648,0.02222221530213648,0.02222221530213648,0.02222221530213648,0.02222221530213648,0.02222221530213648,0.02222221530213648,0.02222221530213648,0.02222221530213648,0.02222221530213648,0.02222221530213648,0.02222221530213648,0.02222221530213648,0.02222221530213648,0.02222221530213648,0.02222221530213648,0.02222221530213648,0.02222221530213648,0.02222221530213648,0.02222221530213648,0.02222221530213648,0.02222221530213648,0.02222221530213648,0.02222221530213648,0.02222221530213648,0.02222221530213648,0.02222221530213648,0.02222221530213648,0.02222221530213648,0.02222221530213648,0.02222221530213648,0.02222221530213648,0.02222221530213648,0.02222221530213648,0.02222221530213648,0.02222221530213648,0.02222221530213648,0.02222221530213648,0.02222221530213648,0.02222221530213648,0.02222221530213648,0.02222221530213648,0.02222221530213648,0.02222221530213648,0.02222221530213648,0.02222221530213648,0.02222221530213648,0.02222221530213648,0.02222221530213648,0.02222221530213648,0.02222221530213648,0.02222221530213648,0.02222221530213648,0.02222221530213648,0.02222221530213648,0.02222221530213648,0.02222221530213648,0.02222221530213648,0.02222221530213648,0.02222221530213648,0.02222221530213648,0.02222221530213648,0.02222221530213648,0.02222221530213648,0.02222221530213648,0.027777722417091838,0.027777722417091838,0.027777722417091838,0.027777722417091838,0.027777722417091838,0.027777722417091838,0.027777722417091838,0.027777722417091838,0.027777722417091838,0.027777722417091838,0.027777722417091838,0.027777722417091838,0.027777722417091838,0.027777722417091838,0.027777722417091838,0.027777722417091838,0.027777722417091838,0.027777722417091838,0.027777722417091838,0.027777722417091838,0.027777722417091838,0.027777722417091838,0.027777722417091838,0.027777722417091838,0.027777722417091838,0.027777722417091838,0.027777722417091838,0.027777722417091838,0.027777722417091838,0.027777722417091838,0.027777722417091838,0.027777722417091838,0.027777722417091838,0.027777722417091838,0.027777722417091838,0.027777722417091838,0.027777722417091838,0.027777722417091838,0.027777722417091838,0.027777722417091838,0.027777722417091838,0.027777722417091838,0.027777722417091838,0.027777722417091838,0.027777722417091838,0.027777722417091838,0.027777722417091838,0.027777722417091838,0.027777722417091838,0.027777722417091838,0.027777722417091838,0.027777722417091838,0.027777722417091838,0.027777722417091838,0.027777722417091838,0.027777722417091838,0.027777722417091838,0.027777722417091838,0.027777722417091838,0.027777722417091838,0.027777722417091838,0.027777722417091838,0.027777722417091838,0.027777722417091838,0.027777722417091838,0.027777722417091838,0.027777722417091838,0.027777722417091838,0.027777722417091838,0.027777722417091838,0.027777722417091838,0.027777722417091838,0.027777722417091838,0.027777722417091838,0.027777722417091838,0.027777722417091838,0.027777722417091838,0.027777722417091838,0.027777722417091838,0.027777722417091838,0.027777722417091838,0.027777722417091838,0.027777722417091838,0.027777722417091838,0.027777722417091838,0.027777722417091838,0.027777722417091838,0.027777722417091838,0.027777722417091838,0.027777722417091838,0.027777722417091838,0.027777722417091838,0.027777722417091838,0.027777722417091838,0.027777722417091838,0.027777722417091838,0.027777722417091838,0.027777722417091838,0.027777722417091838,0.027777722417091838,0.027777722417091838,0.027777722417091838,0.027777722417091838,0.027777722417091838,0.027777722417091838,0.027777722417091838,0.027777722417091838,0.027777722417091838,0.027777722417091838,0.027777722417091838,0.027777722417091838,0.027777722417091838,0.027777722417091838,0.027777722417091838,0.027777722417091838,0.027777722417091838,0.027777722417091838,0.027777722417091838,0.027777722417091838,0.027777722417091838,0.027777722417091838,0.027777722417091838,0.027777722417091838,0.027777722417091838,0.027777722417091838,0.027777722417091838,0.027777722417091838,0.027777722417091838,0.027777722417091838,0.027777722417091838,0.027777722417091838,0.027777722417091838,0.027777722417091838,0.027777722417091838,0.029629641163105867,0.03703700474330357,0.06481485172193878,0.09814814353475765,0.11851856465242347,0.14074071767378826,0.1574074258609694,0.17777772241709183,0.1962962870695153,0.2148148517219388,0.22407400948660713,0.2388888612085459,0.2537037129304847,0.26481485172193875,0.2777777224170918,0.2907407176737883,0.29814814353475766,0.30555556939572703,0.3148148517219388,0.3203702965561224,0.3296295788823342,0.33888886120854594,0.35,0.36111113879145407,0.36666658362563775,0.37777772241709184,0.3851851482780612,0.3981480189732143,0.3981480189732143,0.3981480189732143,0.3981480189732143,0.3981480189732143,0.3981480189732143,0.3981480189732143,0.3981480189732143,0.3981480189732143,0.3981480189732143,0.3981480189732143,0.3981480189732143,0.3981480189732143,0.3981480189732143,0.3981480189732143,0.3981480189732143,-0.011111138791454082,-0.011111138791454082,-0.011111138791454082,-0.011111138791454082,-0.011111138791454082,-0.011111138791454082,-0.011111138791454082,-0.011111138791454082,-0.011111138791454082,-0.011111138791454082,-0.011111138791454082,-0.012962995256696428,-0.016666708187181124,-0.016666708187181124,-0.016666708187181124,-0.016666708187181124,-0.016666708187181124,-0.016666708187181124,-0.016666708187181124,-0.016666708187181124,-0.016666708187181124,-0.016666708187181124,-0.016666708187181124,-0.016666708187181124,-0.016666708187181124,-0.016666708187181124,-0.016666708187181124,-0.016666708187181124,-0.016666708187181124,-0.016666708187181124,-0.016666708187181124,-0.016666708187181124,-0.014814851721938775,-0.011111138791454082,-0.007407425860969387,-0.0018518564652423468,0.007407363580197704,0.018518502371651785,0.033333291812818876,0.04444443060427296,0.05555556939572704,0.07037029655612245,0.08518514827806123,0.1,0.11296287069515307,0.12222227758290816,0.1333332918128189,0.14074071767378826,0.15185185646524235,0.15555556939572704,0.16296287069515306,0.16481485172193877,0.16481485172193877,0.16666658362563774,0.16666658362563774,0.16666658362563774,0.16666658362563774,0.16666658362563774,0.16666658362563774,0.16666658362563774,0.16666658362563774,0.16666658362563774,0.16666658362563774,0.16666658362563774,0.16666658362563774,0.16666658362563774,0.16481485172193877,0.16481485172193877,0.16481485172193877,0.16481485172193877,0.16481485172193877,0.16481485172193877,0.16481485172193877,0.16481485172193877,0.16481485172193877,0.16481485172193877,-0.0018518564652423468,-0.0018518564652423468,-0.0018518564652423468,-0.0018518564652423468,-0.0018518564652423468,-0.0018518564652423468,-0.0018518564652423468,-0.0018518564652423468,-0.0018518564652423468,-0.0018518564652423468,-0.0018518564652423468,-0.0018518564652423468,-0.0018518564652423468,-0.0018518564652423468,-0.0018518564652423468,-0.0018518564652423468,-0.0018518564652423468,-0.0018518564652423468,-0.0018518564652423468,-0.0018518564652423468,-0.0018518564652423468,-0.0018518564652423468,-0.0018518564652423468,-0.0018518564652423468,-0.0018518564652423468,-0.0018518564652423468,-0.0018518564652423468,-0.0018518564652423468,-0.0018518564652423468,-0.0018518564652423468,-0.0018518564652423468,-0.0018518564652423468,-0.0018518564652423468,-0.0018518564652423468,-0.0018518564652423468,-0.0018518564652423468,-0.0018518564652423468,-0.0018518564652423468,-0.0018518564652423468,-0.0018518564652423468,-0.0018518564652423468,-0.0018518564652423468,-0.0018518564652423468,-0.0018518564652423468,-0.0018518564652423468,-0.0018518564652423468,-0.0018518564652423468,-0.0018518564652423468,-0.0018518564652423468,-0.0018518564652423468,-0.0018518564652423468,-0.0018518564652423468,-0.0018518564652423468,-0.0018518564652423468,-0.0018518564652423468,-0.0018518564652423468,-0.0018518564652423468,-0.0018518564652423468,-0.0018518564652423468,-0.0018518564652423468,-0.0018518564652423468,-0.0018518564652423468,-0.0018518564652423468,-0.0018518564652423468,-0.0018518564652423468,-0.0018518564652423468,-0.0018518564652423468,-0.0018518564652423468,-0.0018518564652423468,-0.0018518564652423468,-0.0018518564652423468,-0.0018518564652423468,-0.0018518564652423468,-0.0018518564652423468,-0.0018518564652423468,-0.0018518564652423468,-0.0018518564652423468,-0.0018518564652423468,-0.0018518564652423468,-0.0018518564652423468,-0.0018518564652423468,-0.0018518564652423468,-0.0018518564652423468,-0.0018518564652423468,-0.0018518564652423468,-0.0018518564652423468,-0.0018518564652423468,-0.0018518564652423468,-0.0018518564652423468,-0.0018518564652423468,-0.0018518564652423468,-0.0018518564652423468,-0.0018518564652423468,-0.0018518564652423468,-0.0018518564652423468,-0.0018518564652423468,-0.0018518564652423468,-0.0018518564652423468,-0.0018518564652423468,-0.0018518564652423468,-0.0018518564652423468,-0.0018518564652423468,-0.0018518564652423468,-0.0018518564652423468,-0.0018518564652423468,-0.0018518564652423468,-0.0018518564652423468,-0.0018518564652423468,-0.0018518564652423468,-0.0018518564652423468,0.00370365064971301,0.033333291812818876,0.03888886120854592,0.040740717673788264,0.05,0.059259282326211735,0.06851856465242347,0.07962957888233418,0.08703700474330357,0.09444443060427296,0.11111113879145408,0.12777772241709184,0.1388888612085459,0.1462962870695153,0.1574074258609694,0.16666658362563774,0.17777772241709183,0.18888886120854592,0.1962962870695153,0.2037037129304847,0.2148148517219388,0.22222227758290816,0.22962957888233418,0.23333329181281887,0.23703700474330358,0.2462962870695153,0.25,0.25555556939572704,0.2611111387914541,0.26481485172193875,0.26851856465242346,0.2777777224170918,0.28333329181281885,0.2888888612085459,0.29814814353475766,0.3092591577646684,0.31851856465242345,0.33518514827806123,0.35185185646524236,0.3685185646524235,0.38703700474330355,0.4037037129304847,0.4166667081871811,0.43333341637436223]","[-0.7890727158133866,-0.7890727158133866,-0.7890727158133866,-0.7890727158133866,-0.7890727158133866,-0.7890727158133866,-0.7890727158133866,-0.7890727158133866,-0.7890727158133866,-0.7890727158133866,-0.7890727158133866,-0.7890727158133866,-0.7890727158133866,-0.7890727158133866,-0.7890727158133866,-0.7890727158133866,-0.7890727158133866,-0.7890727158133866,-0.7890727158133866,-0.7890727158133866,-0.7890727158133866,-0.7890727158133866,-0.7890727158133866,-0.7890727158133866,-0.7890727158133866,-0.7890727158133866,-0.7890727158133866,-0.7890727158133866,-0.7890727158133866,-0.7890727158133866,-0.7890727158133866,-0.7890727158133866,-0.7890727158133866,-0.7890727158133866,-0.7890727158133866,-0.7890727158133866,-0.7890727158133866,-0.7890727158133866,-0.7890727158133866,-0.7890727158133866,-0.7890727158133866,-0.7890727158133866,-0.7890727158133866,-0.7890727158133866,-0.7890727158133866,-0.7890727158133866,-0.7890727158133866,-0.7890727158133866,-0.7890727158133866,-0.7890727158133866,-0.7890727158133866,-0.7890727158133866,-0.7890727158133866,-0.7890727158133866,-0.7890727158133866,-0.7890727158133866,-0.7890727158133866,-0.7890727158133866,-0.7890727158133866,-0.7890727158133866,-0.7890727158133866,-0.7890727158133866,-0.7890727158133866,-0.7890727158133866,-0.7890727158133866,-0.7890727158133866,-0.7890727158133866,-0.7890727158133866,-0.7890727158133866,-0.7890727158133866,-0.7890727158133866,-0.7890727158133866,-0.7890727158133866,-0.7890727158133866,-0.7890727158133866,-0.7890727158133866,-0.7890727158133866,-0.7890727158133866,-0.7890727158133866,-0.7890727158133866,-0.7890727158133866,-0.7890727158133866,-0.7890727158133866,-0.7890727158133866,-0.7890727158133866,-0.7890727158133866,-0.7890727158133866,-0.7890727158133866,-0.7890727158133866,-0.7890727158133866,-0.7890727158133866,-0.7890727158133866,-0.7890727158133866,-0.7890727158133866,-0.7890727158133866,-0.7890727158133866,-0.7890727158133866,-0.7890727158133866,-0.7890727158133866,-0.7890727158133866,-0.7890727158133866,-0.7890727158133866,-0.7890727158133866,-0.7890727158133866,-0.7890727158133866,-0.7890727158133866,-0.7890727158133866,-0.7890727158133866,-0.7890727158133866,-0.7890727158133866,-0.7890727158133866,-0.7890727158133866,-0.7890727158133866,-0.7890727158133866,-0.7890727158133866,-0.7890727158133866,-0.7890727158133866,-0.7890727158133866,-0.7890727158133866,-0.7890727158133866,-0.7890727158133866,-0.7890727158133866,-0.7890727158133866,-0.7890727158133866,-0.7890727158133866,-0.7890727158133866,-0.7890727158133866,-0.7890727158133866,-0.7890727158133866,-0.7890727158133866,-0.7890727158133866,-0.7890727158133866,-0.7890727158133866,-0.7890727158133866,-0.7890727158133866,-0.7890727158133866,-0.7890727158133866,-0.7890727158133866,-0.7890727158133866,-0.7890727158133866,-0.7890727158133866,-0.7890727158133866,-0.7890727158133866,-0.7890727158133866,-0.7890727158133866,-0.7890727158133866,-0.7890727158133866,-0.7890727158133866,-0.7890727158133866,-0.7890727158133866,-0.7890727158133866,-0.7890727158133866,-0.7890727158133866,-0.7890727158133866,-0.7890727158133866,-0.7890727158133866,-0.7890727158133866,-0.7890727158133866,-0.7890727158133866,-0.7890727158133866,-0.7890727158133866,-0.7890727158133866,-0.7890727158133866,-0.7890727158133866,-0.7890727158133866,-0.7890727158133866,-0.7890727158133866,-0.7890727158133866,-0.7890727158133866,-0.7890727158133866,-0.7890727158133866,-0.7890727158133866,-0.7890727158133866,-0.7890727158133866,-0.7890727158133866,-0.7890727158133866,-0.7890727158133866,-0.7890727158133866,-0.7890727158133866,-0.7890727158133866,-0.7890727158133866,-0.7890727158133866,-0.7890727158133866,-0.7890727158133866,-0.7890727158133866,-0.7890727158133866,-0.7890727158133866,-0.7890727158133866,-0.7890727158133866,-0.7890727158133866,-0.7890727158133866,-0.7890727158133866,-0.7890727158133866,-0.7890727158133866,-0.7890727158133866,-0.7890727158133866,-0.7890727158133866,-0.7890727158133866,-0.7890727158133866,-0.7890727158133866,-0.7890727158133866,-0.7890727158133866,-0.7890727158133866,-0.7890727158133866,-0.7890727158133866,-0.7890727158133866,-0.7890727158133866,-0.7890727158133866,-0.7890727158133866,-0.7890727158133866,-0.7890727158133866,-0.7890727158133866,-0.7890727158133866,-0.7890727158133866,-0.7890727158133866,-0.7890727158133866,-0.7890727158133866,-0.7890727158133866,-0.7890727158133866,-0.7890727158133866,-0.7890727158133866,-0.7890727158133866,-0.7890727158133866,-0.7890727158133866,-0.7890727158133866,-0.7890727158133866,-0.7890727158133866,-0.7890727158133866,-0.7890727158133866,-0.7890727158133866,-0.7890727158133866,-0.7890727158133866,-0.7890727158133866,-0.7890727158133866,-0.7890727158133866,-0.7890727158133866,-0.7890727158133866,-0.7890727158133866,-0.7890727158133866,-0.7890727158133866,-0.7890727158133866,-0.7890727158133866,-0.7890727158133866,-0.7890727158133866,-0.7890727158133866,-0.7890727158133866,-0.7890727158133866,-0.7890727158133866,-0.7890727158133866,-0.7890727158133866,-0.7890727158133866,-0.7890727158133866,-0.7890727158133866,-0.7890727158133866,-0.7890727158133866,-0.7890727158133866,-0.7890727158133866,-0.7890727158133866,-0.7890727158133866,-0.7890727158133866,-0.7890727158133866,-0.7890727158133866,-0.7890727158133866,-0.7890727158133866,-0.7890727158133866,-0.7890727158133866,-0.7890727158133866,-0.7890727158133866,-0.7890727158133866,-0.7890727158133866,-0.7890727158133866,-0.7890727158133866,-0.7890727158133866,-0.7890727158133866,-0.7890727158133866,-0.7890727158133866,-0.7890727158133866,-0.7890727158133866,-0.7890727158133866,-0.7890727158133866,-0.7890727158133866,-0.7890727158133866,-0.7890727158133866,-0.7890727158133866,-0.7890727158133866,-0.7890727158133866,-0.7890727158133866,-0.7890727158133866,-0.7890727158133866,-0.7890727158133866,-0.7890727158133866,-0.7890727158133866,-0.7890727158133866,-0.7890727158133866,-0.7890727158133866,-0.7890727158133866,-0.7890727158133866,-0.7890727158133866,-0.7890727158133866,-0.7890727158133866,-0.7890727158133866,-0.7890727158133866,-0.7890727158133866,-0.7890727158133866,-0.7890727158133866,-0.7890727158133866,-0.7890727158133866,-0.7890727158133866,-0.7890727158133866,-0.7890727158133866,-0.7890727158133866,-0.7890727158133866,-0.7890727158133866,-0.7890727158133866,-0.7890727158133866,-0.7890727158133866,-0.7890727158133866,-0.7890727158133866,-0.7890727158133866,-0.7890727158133866,-0.7890727158133866,-0.7890727158133866,-0.7890727158133866,-0.7890727158133866,-0.7890727158133866,-0.7890727158133866,-0.7890727158133866,-0.7890727158133866,-0.7890727158133866,-0.7890727158133866,-0.7890727158133866,-0.7890727158133866,-0.7890727158133866,-0.7890727158133866,-0.7890727158133866,-0.7890727158133866,-0.7890727158133866,-0.7890727158133866,-0.7890727158133866,-0.7890727158133866,-0.7890727158133866,-0.7890727158133866,-0.7890727158133866,-0.7890727158133866,-0.7890727158133866,-0.7890727158133866,-0.7890727158133866,-0.7890727158133866,-0.7890727158133866,-0.7890727158133866,-0.7890727158133866,-0.7890727158133866,-0.7890727158133866,-0.7890727158133866,-0.7890727158133866,-0.7890727158133866,-0.7890727158133866,-0.7890727158133866,-0.7890727158133866,-0.7890727158133866,-0.7890727158133866,-0.7890727158133866,-0.7890727158133866,-0.7890727158133866,-0.7890727158133866,-0.7890727158133866,-0.7890727158133866,-0.7890727158133866,-0.7890727158133866,-0.7890727158133866,-0.7890727158133866,-0.7890727158133866,-0.7890727158133866,-0.7890727158133866,-0.7890727158133866,-0.7890727158133866,-0.7890727158133866,-0.7890727158133866,-0.7890727158133866,-0.7890727158133866,-0.7890727158133866,-0.7890727158133866,-0.7890727158133866,-0.7890727158133866,-0.7890727158133866,-0.7890727158133866,-0.7890727158133866,-0.7890727158133866,-0.7890727158133866,-0.7890727158133866,-0.7890727158133866,-0.7890727158133866,-0.7890727158133866,-0.7890727158133866,-0.7890727158133866,-0.7890727158133866,-0.7890727158133866,-0.7890727158133866,-0.7890727158133866,-0.7890727158133866,-0.7890727158133866,-0.7890727158133866,-0.7890727158133866,-0.7890727158133866,-0.7890727158133866,-0.7890727158133866,-0.7890727158133866,-0.7890727158133866,-0.7890727158133866,-0.7890727158133866,-0.7890727158133866,-0.7890727158133866,-0.7890727158133866,-0.7890727158133866,-0.7890727158133866,-0.7890727158133866,-0.7890727158133866,-0.7890727158133866,-0.7890727158133866,-0.7890727158133866,-0.7890727158133866,-0.7890727158133866,-0.7890727158133866,-0.7890727158133866,-0.7890727158133866,-0.7890727158133866,-0.7890727158133866,-0.7890727158133866,-0.7890727158133866,-0.7890727158133866,-0.7890727158133866,-0.7890727158133866,-0.7890727158133866,-0.7890727158133866,-0.7890727158133866,-0.7890727158133866,-0.7890727158133866,-0.7890727158133866,-0.7890727158133866,-0.7890727158133866,-0.7890727158133866,-0.7890727158133866,-0.7890727158133866,-0.7890727158133866,-0.7890727158133866,-0.7890727158133866,-0.7890727158133866,-0.7890727158133866,-0.7890727158133866,-0.7890727158133866,-0.7890727158133866,-0.7890727158133866,-0.7890727158133866,-0.7890727158133866,-0.7890727158133866,-0.7890727158133866,-0.7890727158133866,-0.7890727158133866,-0.7890727158133866,-0.7890727158133866,-0.7890727158133866,-0.7890727158133866,-0.7890727158133866,-0.7890727158133866,-0.7890727158133866,-0.7890727158133866,-0.7890727158133866,-0.7890727158133866,-0.7890727158133866,-0.7890727158133866,-0.7890727158133866,-0.7890727158133866,-0.5972943677969859,-0.5972943677969859,-0.5972943677969859,-0.5972943677969859,-0.5972943677969859,-0.5972943677969859,-0.5972943677969859,-0.5972943677969859,-0.5972943677969859,-0.5972943677969859,-0.5972943677969859,-0.5972943677969859,-0.5972943677969859,-0.5972943677969859,-0.5972943677969859,-0.5972943677969859,-0.5972943677969859,-0.5972943677969859,-0.5972943677969859,-0.5972943677969859,-0.5972943677969859,-0.5972943677969859,-0.5972943677969859,-0.5972943677969859,-0.5972943677969859,-0.5972943677969859,-0.5972943677969859,-0.5972943677969859,-0.5972943677969859,-0.5972943677969859,-0.5972943677969859,-0.5972943677969859,-0.5972943677969859,-0.5972943677969859,-0.5972943677969859,-0.5972943677969859,-0.5972943677969859,-0.5972943677969859,-0.5972943677969859,-0.5972943677969859,-0.5972943677969859,-0.5972943677969859,-0.5972943677969859,-0.5972943677969859,-0.5972943677969859,-0.5972943677969859,-0.5972943677969859,-0.5972943677969859,-0.5972943677969859,-0.5972943677969859,-0.5972943677969859,-0.5972943677969859,-0.5972943677969859,-0.5972943677969859,-0.5972943677969859,-0.5972943677969859,-0.5972943677969859,-0.5972943677969859,-0.5972943677969859,-0.5972943677969859,-0.5972943677969859,-0.5972943677969859,-0.5972943677969859,-0.5972943677969859,-0.5972943677969859,-0.5972943677969859,-0.5972943677969859,-0.5972943677969859,-0.5972943677969859,-0.5972943677969859,-0.5972943677969859,-0.5972943677969859,-0.5972943677969859,-0.5972943677969859,-0.5972943677969859,-0.5972943677969859,-0.5972943677969859,-0.5972943677969859,-0.5972943677969859,-0.5972943677969859,-0.5972943677969859,-0.5972943677969859,-0.5972943677969859,-0.5972943677969859,-0.5972943677969859,-0.5972943677969859,-0.5972943677969859,-0.5972943677969859,-0.5972943677969859,-0.5972943677969859,-0.5972943677969859,-0.5972943677969859,-0.5972943677969859,-0.5972943677969859,-0.5972943677969859,-0.5972943677969859,-0.5972943677969859,-0.5972943677969859,-0.5972943677969859,-0.5972943677969859,-0.5972943677969859,-0.5972943677969859,-0.5972943677969859,-0.5972943677969859,-0.5972943677969859,-0.5972943677969859,-0.5972943677969859,-0.5972943677969859,-0.5972943677969859,-0.5972943677969859,-0.6127396387411348,-0.6127396387411348,-0.6127396387411348,-0.6127396387411348,-0.6127396387411348,-0.6127396387411348,-0.6127396387411348,-0.6127396387411348,-0.6127396387411348,-0.6127396387411348,-0.6127396387411348,-0.6127396387411348,-0.6127396387411348,-0.6127396387411348,-0.6127396387411348,-0.6127396387411348,-0.6127396387411348,-0.6127396387411348,-0.6127396387411348,-0.6127396387411348,-0.6127396387411348,-0.6127396387411348,-0.6127396387411348,-0.6127396387411348,-0.6127396387411348,-0.6127396387411348,-0.6127396387411348,-0.6127396387411348,-0.6127396387411348,-0.6127396387411348,-0.6127396387411348,-0.6127396387411348,-0.6127396387411348,-0.6127396387411348,-0.6127396387411348,-0.6127396387411348,-0.6127396387411348,-0.6127396387411348,-0.6127396387411348,-0.6127396387411348,-0.6127396387411348,-0.6127396387411348,-0.6127396387411348,-0.6127396387411348,-0.6127396387411348,-0.6127396387411348,-0.6127396387411348,-0.6127396387411348,-0.6127396387411348,-0.6127396387411348,-0.6127396387411348,-0.6127396387411348,-0.6127396387411348,-0.6127396387411348,-0.6127396387411348,-0.6127396387411348,-0.6127396387411348,-0.6127396387411348,-0.6127396387411348,-0.6127396387411348,-0.6127396387411348,-0.6127396387411348,-0.6127396387411348,-0.6127396387411348,-0.6127396387411348,-0.6127396387411348,-0.6127396387411348,-0.6127396387411348,-0.6127396387411348,-0.6127396387411348,-0.6127396387411348,-0.6127396387411348,-0.6127396387411348,-0.6127396387411348,-0.6127396387411348,-0.6127396387411348,-0.6127396387411348,-0.6127396387411348,-0.6127396387411348,-0.6127396387411348,-0.6127396387411348,-0.6127396387411348,-0.6127396387411348,-0.6127396387411348,-0.6127396387411348,-0.6127396387411348,-0.6127396387411348,-0.6127396387411348,-0.6127396387411348,-0.6127396387411348,-0.6127396387411348,-0.6127396387411348,-0.6127396387411348,-0.6127396387411348,-0.6127396387411348,-0.6127396387411348,-0.6127396387411348,-0.6127396387411348,-0.6127396387411348,-0.6127396387411348,-0.6127396387411348,-0.6127396387411348,-0.6127396387411348,-0.6127396387411348,-0.6127396387411348,-0.6127396387411348,-0.6127396387411348,-0.6127396387411348,-0.6127396387411348,-0.6127396387411348,-0.6127396387411348,-0.6127396387411348,-0.6127396387411348,-0.6127396387411348,-0.6127396387411348,-0.6127396387411348,-0.6127396387411348,-0.6127396387411348,-0.6127396387411348,-0.6127396387411348,-0.6127396387411348,-0.6127396387411348,-0.6127396387411348,-0.6127396387411348,-0.6127396387411348,-0.6127396387411348,-0.6127396387411348,-0.6127396387411348,-0.6127396387411348,-0.6127396387411348,-0.6127396387411348,-0.6127396387411348,-0.6127396387411348,-0.6127396387411348,-0.5998687527703901,-0.5818490968528369,-0.5226423980496454,-0.45700025626108154,-0.4183870789007092,-0.3759127569536791,-0.3450223016400709,-0.30126078720633864,-0.2549250609485816,-0.2085894212655142,-0.17898607186391843,-0.13651166334219858,-0.0785920704510195,-0.030969324855939718,0.02180201753656915,0.07586029269171099,0.10932495982934397,0.1505121758643617,0.18655114140070922,0.2097189612422429,0.24704494611591313,0.28437088770223845,0.3178355981272163,0.34872605344082447,0.36674549292165337,0.3860520383144947,0.3937746304992243,0.3989230541472739,0.3989230541472739,0.3989230541472739,0.3989230541472739,0.3989230541472739,0.3989230541472739,0.3989230541472739,0.3989230541472739,0.3989230541472739,0.3989230541472739,0.3989230541472739,0.3989230541472739,0.3989230541472739,0.3989230541472739,0.3989230541472739,0.3989230541472739,-0.5470973238031915,-0.5470973238031915,-0.5470973238031915,-0.5470973238031915,-0.5470973238031915,-0.5470973238031915,-0.5470973238031915,-0.5470973238031915,-0.5470973238031915,-0.5535329399379433,-0.5612555754100177,-0.5767008463541666,-0.5921459441489362,-0.5934331366356383,-0.5947203291223404,-0.5972943677969859,-0.5972943677969859,-0.5972943677969859,-0.5972943677969859,-0.5972943677969859,-0.5972943677969859,-0.5972943677969859,-0.5972943677969859,-0.5972943677969859,-0.5972943677969859,-0.5972943677969859,-0.5972943677969859,-0.5972943677969859,-0.5972943677969859,-0.5972943677969859,-0.5972943677969859,-0.5972943677969859,-0.5972943677969859,-0.5934331366356383,-0.5908589248116135,-0.5805620775155141,-0.5664039990580674,-0.5483845162898936,-0.5252167830230496,-0.5084843195921985,-0.48274220135195034,-0.45700025626108154,-0.43125822459552304,-0.4080904047539894,-0.384922498337766,-0.37205143921764183,-0.3553190623614805,-0.3398738779920213,-0.3257157129598848,-0.3179931640625,-0.3089833361037234,-0.3089833361037234,-0.30769640334109044,-0.30769640334109044,-0.30769640334109044,-0.30769640334109044,-0.30769640334109044,-0.30769640334109044,-0.30769640334109044,-0.30769640334109044,-0.30769640334109044,-0.30769640334109044,-0.30769640334109044,-0.30769640334109044,-0.3089833361037234,-0.31027052859042553,-0.3128447404144504,-0.3128447404144504,-0.3128447404144504,-0.3128447404144504,-0.3128447404144504,-0.3128447404144504,-0.3128447404144504,-0.3128447404144504,-0.3128447404144504,-0.3128447404144504,-0.6191752548758865,-0.6191752548758865,-0.6191752548758865,-0.6191752548758865,-0.6191752548758865,-0.6191752548758865,-0.6191752548758865,-0.6191752548758865,-0.6191752548758865,-0.6191752548758865,-0.6191752548758865,-0.6191752548758865,-0.6191752548758865,-0.6191752548758865,-0.6191752548758865,-0.6191752548758865,-0.6191752548758865,-0.6191752548758865,-0.6191752548758865,-0.6191752548758865,-0.6191752548758865,-0.6191752548758865,-0.6191752548758865,-0.6191752548758865,-0.6191752548758865,-0.6191752548758865,-0.6191752548758865,-0.6191752548758865,-0.6191752548758865,-0.6191752548758865,-0.6191752548758865,-0.6191752548758865,-0.6191752548758865,-0.6191752548758865,-0.6191752548758865,-0.6191752548758865,-0.6191752548758865,-0.6191752548758865,-0.6191752548758865,-0.6191752548758865,-0.6191752548758865,-0.6191752548758865,-0.6191752548758865,-0.6191752548758865,-0.6191752548758865,-0.6191752548758865,-0.6191752548758865,-0.6191752548758865,-0.6191752548758865,-0.6191752548758865,-0.6191752548758865,-0.6191752548758865,-0.6191752548758865,-0.6191752548758865,-0.6191752548758865,-0.6191752548758865,-0.6191752548758865,-0.6191752548758865,-0.6191752548758865,-0.6191752548758865,-0.6191752548758865,-0.6191752548758865,-0.6191752548758865,-0.6191752548758865,-0.6191752548758865,-0.6191752548758865,-0.6191752548758865,-0.6191752548758865,-0.6191752548758865,-0.6191752548758865,-0.6191752548758865,-0.6191752548758865,-0.6191752548758865,-0.6191752548758865,-0.6191752548758865,-0.6191752548758865,-0.6191752548758865,-0.6191752548758865,-0.6191752548758865,-0.6191752548758865,-0.6191752548758865,-0.6191752548758865,-0.6191752548758865,-0.6191752548758865,-0.6191752548758865,-0.6191752548758865,-0.6191752548758865,-0.6191752548758865,-0.6191752548758865,-0.6191752548758865,-0.6191752548758865,-0.6191752548758865,-0.6191752548758865,-0.6191752548758865,-0.6191752548758865,-0.6191752548758865,-0.6191752548758865,-0.6191752548758865,-0.6191752548758865,-0.6191752548758865,-0.6191752548758865,-0.6191752548758865,-0.6191752548758865,-0.6191752548758865,-0.6191752548758865,-0.6191752548758865,-0.6191752548758865,-0.6191752548758865,-0.6191752548758865,-0.6191752548758865,-0.6127396387411348,-0.5754136538674646,-0.5651169797207447,-0.559968556072695,-0.543236092641844,-0.5187811668882979,-0.4994746647828014,-0.48145518201462767,-0.4621486799091312,-0.44799042830230495,-0.4158129536513741,-0.384922498337766,-0.3656159096575798,-0.34759651346409576,-0.32442860704787235,-0.29868666195700355,-0.2716574378047429,-0.24205417497783688,-0.21373784491356382,-0.18542151484929079,-0.14809561655031028,-0.11977937306072695,-0.08374049409906915,-0.06572109790558511,-0.04641442265070922,-0.007801418439716312,0.010218064328457448,0.03853430781804078,0.06685055130762411,0.08615705341312056,0.10803785391733156,0.14793796404033688,0.1852639489140071,0.2071447494182181,0.2444707342918883,0.28565803690159575,0.3178355981272163,0.3680325555463209,0.41951661887743796,0.4697136628712323,0.5134751773049645,0.5520882680906471,0.5778302997562057,0.6061465865331339]","[1,0,0,0,0,0,0,0,0,0,0,0,0,0,0,0,0,0,0,0,0,0,0,0,0,0,0,0,0,0,0,0,0,0,0,0,0,0,0,0,0,0,0,0,0,0,0,0,0,0,0,0,0,0,0,0,0,0,0,0,0,0,0,0,0,0,0,0,0,0,0,0,0,0,0,0,0,0,0,0,0,0,0,0,0,0,0,0,0,0,0,0,0,0,0,0,0,0,0,0,0,0,0,0,0,0,0,0,0,0,0,0,0,0,0,0,0,0,0,0,0,0,0,0,0,0,0,0,0,0,0,0,0,0,0,0,0,0,0,0,0,0,0,0,0,0,0,0,0,0,0,0,0,0,0,0,0,0,0,0,0,0,0,0,0,0,0,0,0,0,0,0,0,0,0,0,0,0,0,0,0,0,0,0,0,0,0,0,0,0,0,0,0,0,0,0,0,0,0,0,0,0,0,0,0,0,0,0,0,0,0,0,0,0,0,0,0,0,0,0,0,0,0,0,0,0,0,0,0,0,0,0,0,0,0,0,0,0,0,0,0,0,0,0,0,0,0,0,0,0,0,0,0,0,0,0,0,0,0,0,0,0,0,0,0,0,0,0,0,0,0,0,0,0,0,0,0,0,0,0,0,0,0,0,0,0,0,0,0,0,0,0,0,0,0,0,0,0,0,0,0,0,0,0,0,0,0,0,0,0,0,0,0,0,0,0,0,0,0,0,0,0,0,0,0,0,0,0,0,0,0,0,0,0,0,0,0,0,0,0,0,0,0,0,0,0,0,0,0,0,0,0,0,0,0,0,0,0,0,0,0,0,0,0,0,0,0,0,0,0,0,0,0,0,0,0,0,0,0,0,0,0,0,0,0,0,0,0,0,0,0,0,0,0,0,0,0,0,0,0,0,0,0,0,0,0,0,0,0,0,0,0,0,0,0,0,0,0,0,0,0,0,0,0,0,0,0,0,0,0,0,0,0,0,0,0,0,0,0,0,0,0,0,0,0,0,0,0,0,0,0,0,0,0,0,0,0,0,0,0,0,0,0,0,0,0,0,0,0,0,0,0,1,1,1,1,1,1,1,1,1,0,0,0,0,0,0,0,0,0,0,0,0,0,0,0,0,0,0,0,0,0,0,0,0,0,0,0,0,0,0,0,0,0,0,0,0,0,0,0,0,0,0,0,0,0,0,0,0,0,0,0,0,0,0,0,0,0,0,0,0,0,0,0,0,0,0,0,0,0,0,0,0,0,0,0,0,0,0,0,0,0,0,0,0,0,0,0,0,0,0,0,0,0,0,0,0,0,0,0,0,0,1,1,1,1,1,1,1,1,1,1,1,1,1,1,1,1,1,1,1,1,1,1,1,1,1,1,1,1,1,1,1,1,1,1,1,1,1,1,1,1,1,1,1,1,1,1,1,1,1,1,1,1,1,1,1,1,1,1,1,1,1,1,1,1,1,1,1,1,1,1,1,1,1,1,1,1,1,1,1,1,1,1,1,1,1,1,1,1,1,1,1,1,1,1,1,1,1,1,1,1,1,1,1,1,1,1,1,1,1,1,1,1,1,1,1,1,1,1,1,1,1,1,1,1,1,1,1,1,1,1,1,1,1,1,1,1,1,1,1,1,1,1,1,1,1,1,1,1,1,1,1,1,1,1,1,1,1,1,1,1,1,1,0,0,0,0,0,0,0,0,0,0,0,0,0,0,0,1,1,1,1,1,1,1,1,1,1,1,1,1,1,1,1,1,1,1,1,1,1,1,1,1,1,1,1,1,1,1,1,1,1,1,1,1,1,1,1,1,1,1,1,1,1,1,1,1,1,1,1,1,1,1,1,1,1,1,1,1,1,1,1,1,1,0,0,0,0,0,0,0,0,0,0,1,1,1,1,1,1,1,1,1,1,1,1,1,1,1,1,1,1,1,1,1,1,1,1,1,1,1,1,1,1,1,1,1,1,1,1,1,1,1,1,1,1,1,1,1,1,1,1,1,1,1,1,1,1,1,1,1,1,1,1,1,1,1,1,1,1,1,1,1,1,1,1,1,1,1,1,1,1,1,1,1,1,1,1,1,1,1,1,1,1,1,1,1,1,1,1,1,1,1,1,1,1,1,1,1,1,1,1,1,1,1,1,1,1,1,1,1,1,1,1,1,1,1,1,1,1,1,1,1,1,1,1,1,1,1,1,1,1,1,1,1,1,1,1,1,1,1,1,1,1,1,1,1,1]","[0,0,0,0,0,0,0,0,0,0,0,0,0,0,0,0,0,0,0,0,0,0,0,0,0,0,0,0,0,0,0,0,0,0,0,0,0,0,0,0,0,0,0,0,0,0,0,0,0,0,0,0,0,0,0,0,0,0,0,0,0,0,0,0,0,0,0,0,0,0,0,0,0,0,0,0,0,0,0,0,0,0,0,0,0,0,0,0,0,0,0,0,0,0,0,0,0,0,0,0,0,0,0,0,0,0,0,0,0,0,0,0,0,0,0,0,0,0,0,0,0,0,0,0,0,0,0,0,0,0,0,0,0,0,0,0,0,0,0,0,0,0,0,0,0,0,0,0,0,0,0,0,0,0,0,0,0,0,0,0,0,0,0,0,0,0,0,0,0,0,0,0,0,0,0,0,0,0,0,0,0,0,0,0,0,0,0,0,0,0,0,0,0,0,0,0,0,0,0,0,0,0,0,0,0,0,0,0,0,0,0,0,0,0,0,0,0,0,0,0,0,0,0,0,0,0,0,0,0,0,0,0,0,0,0,0,0,0,0,0,0,0,0,0,0,0,0,0,0,0,0,0,0,0,0,0,0,0,0,0,0,0,0,0,0,0,0,0,0,0,0,0,0,0,0,0,0,0,0,0,0,0,0,0,0,0,0,0,0,0,0,0,0,0,0,0,0,0,0,0,0,0,0,0,0,0,0,0,0,0,0,0,0,0,0,0,0,0,0,0,0,0,0,0,0,0,0,0,0,0,0,0,0,0,0,0,0,0,0,0,0,0,0,0,0,0,0,0,0,0,0,0,0,0,0,0,0,0,0,0,0,0,0,0,0,0,0,0,0,0,0,0,0,0,0,0,0,0,0,0,0,0,0,0,0,0,0,0,0,0,0,0,0,0,0,0,0,0,0,0,0,0,0,0,0,0,0,0,0,0,0,0,0,0,0,0,0,0,0,0,0,0,0,0,0,0,0,0,0,0,0,0,0,0,0,0,0,0,0,0,0,0,0,0,0,0,0,0,0,0,0,0,0,0,0,0,0,0,0,0,0,0,0,0,0,0,0,0,0,0,0,0,0,0,0,0,0,0,0,0,0,0,0,0,0,0,0,0,0,0,0,0,0,0,0,0,0,0,0,0,0,0,0,0,0,0,0,0,0,0,0,0,0,0,0,0,0,0,0,0,0,0,0,0,0,0,0,0,0,0,0,0,0,0,0,0,0,0,0,0,0,0,0,0,0,0,0,0,0,0,0,0,0,0,0,0,0,0,0,0,0,0,0,0,0,0,0,0,0,0,0,0,0,0,0,0,0,0,0,0,0,0,0,0,0,0,0,0,0,0,0,0,0,0,0,0,0,0,0,0,0,0,0,0,0,0,0,0,0,0,0,0,0,0,0,0,0,0,0,0,0,0,0,0,0,0,0,0,0,0,0,0,0,0,0,0,0,0,0,0,0,0,0,0,0,0,0,0,0,0,0,0,0,0,0,0,0,0,0,0,0,0,0,0,0,0,0,0,0,0,0,0,0,0,0,0,0,0,0,0,0,0,0,0,0,0,0,0,0,0,0,0,0,0,0,0,0,0,0,0,0,0,0,0,0,0,0,0,0,0,0,0,0,0,0,0,0,0,0,0,0,0,0,0,0,0,0,0,0,0,0,0,0,0,0,0,0,0,0,0,0,0,0,0,0,0,0,0,0,0,0,0,0,0,0,0,0,0,0,0,0,0,0,0,0,0,0,0,0,0,0,0,0,0,0,0,0,0,0,0,0,0,0,0,0,0,0,0,0,0,0,0,0,0,0,0,0,0,0,0,0,0,0,0,0,0,0,0,0,0,0,0,0,0,0,0,0,0,0,0,0,0,0,0,0,0,0,0,0,0,0,0,0,0,0,0,0,0,0,0,0,0,0,0,0,0,0,0,0,0,0,0,0,0,0,0,0,0,0,0,0,0,0,0,0,0,0,0,0,0,0,0,0,0,0,0,0,0,0,0,0,0,0,0,0,0,0,0,0,0,0,0,0,0,0,0,0,0,0,0,0,0,0,0,0,0,0,0,0,0,0,0,0,0,0,0,0,0,0,0,0,0,0,0,0,0,0,0,0,0,0,0,0,0,0,0,0,0,0,0,0,0,0,0,0,0,0,0,0,0,0,0,0,0,0,0,0,0,0,0,0,0,0,0,0,0,0,0,0,0,0,0,0,0,0,0,0,0,0,0,0,0,0,0,0,0,0,0,0]","[0,0,0,0,0,0,0,0,0,0,0,0,0,0,0,0,0,0,0,0,0,0,0,0,0,0,0,0,0,0,0,0,0,0,0,0,0,0,0,0,0,0,0,0,0,0,0,0,0,0,0,0,0,0,0,0,0,0,0,0,0,0,0,0,0,0,0,0,0,0,0,0,0,0,0,0,0,0,0,0,0,0,0,0,0,0,0,0,0,0,0,0,0,0,0,0,0,0,0,0,0,0,0,0,0,0,0,0,0,0,0,0,0,0,0,0,0,0,0,0,0,0,0,0,0,0,0,0,0,0,0,0,0,0,0,0,0,0,0,0,0,0,0,0,0,0,0,0,0,0,0,0,0,0,0,0,0,0,0,0,0,0,0,0,0,0,0,0,0,0,0,0,0,0,0,0,0,0,0,0,0,0,0,0,0,0,0,0,0,0,0,0,0,0,0,0,0,0,0,0,0,0,0,0,0,0,0,0,0,0,0,0,0,0,0,0,0,0,0,0,0,0,0,0,0,0,0,0,0,0,0,0,0,0,0,0,0,0,0,0,0,0,0,0,0,0,0,0,0,0,0,0,0,0,0,0,0,0,0,0,0,0,0,0,0,0,0,0,0,0,0,0,0,0,0,0,0,0,0,0,0,0,0,0,0,0,0,0,0,0,0,0,0,0,0,0,0,0,0,0,0,0,0,0,0,0,0,0,0,0,0,0,0,0,0,0,0,0,0,0,0,0,0,0,0,0,0,0,0,0,0,0,0,0,0,0,0,0,0,0,0,0,0,0,0,0,0,0,0,0,0,0,0,0,0,0,0,0,0,0,0,0,0,0,0,0,0,0,0,0,0,0,0,0,0,0,0,0,0,0,0,0,0,0,0,0,0,0,0,0,0,0,0,0,0,0,0,0,0,0,0,0,0,0,0,0,0,0,0,0,0,0,0,0,0,0,0,0,0,0,0,0,0,0,0,0,0,0,0,0,0,0,0,0,0,0,0,0,0,0,0,0,0,0,0,0,0,0,0,0,0,0,0,0,0,0,0,0,0,0,0,0,0,0,0,0,0,0,0,0,0,0,0,0,0,0,0,0,0,0,0,0,0,0,0,0,0,0,0,0,0,0,0,0,0,0,0,0,0,0,0,0,0,0,0,0,0,0,0,0,0,0,0,0,0,0,0,0,0,0,0,0,0,0,0,0,0,0,0,0,0,0,0,0,0,0,0,0,0,0,0,0,0,0,0,0,0,0,0,0,0,0,0,0,0,0,0,0,0,0,0,0,0,0,0,0,0,0,0,0,0,0,0,0,0,0,0,0,0,0,0,0,0,0,0,0,0,0,0,0,0,0,0,0,0,0,0,0,0,0,0,0,0,0,0,0,0,0,0,0,0,0,0,0,0,0,0,0,0,0,0,0,0,0,0,0,0,0,0,0,0,0,0,0,0,0,0,0,0,0,0,0,0,0,0,0,0,0,0,0,0,0,0,0,0,0,0,0,0,0,0,0,0,0,0,0,0,0,0,0,0,0,0,0,0,0,0,0,0,0,0,0,0,0,0,0,0,0,0,0,0,0,0,0,0,0,0,0,0,0,0,0,0,0,0,0,0,0,0,0,0,0,0,0,0,0,0,0,0,0,0,0,0,0,0,0,0,0,0,0,0,0,0,0,0,0,0,0,0,0,0,0,0,0,0,0,0,0,0,0,0,0,0,0,0,0,0,0,0,0,0,0,0,0,0,0,0,0,0,0,0,0,0,0,0,0,0,0,0,0,0,0,0,0,0,0,0,0,0,0,0,0,0,0,0,0,0,0,0,0,0,0,0,0,0,0,0,0,0,0,0,0,0,0,0,0,0,0,0,0,0,0,0,0,0,0,0,0,0,0,0,0,0,0,0,0,0,0,0,0,0,0,0,0,0,0,0,0,0,0,0,0,0,0,0,0,0,0,0,0,0,0,0,0,0,0,0,0,0,0,0,0,0,0,0,0,0,0,0,0,0,0,0,0,0,0,0,0,0,0,0,0,0,0,0,0,0,0,0,0,0,0,0,0,0,0,0,0,0,0,0,0,0,0,0,0,0,0,0,0,0,0,0,0,0,0,0,0,0,0,0,0,0,0,0,0,0,0,0,0,0,0,0,0,0,0,0,0,0,0,0,0,0,0,0,0,0,0,0,0,0,0,0,0,0,0,0,0,0,0,0,0,0,0,0,0,0,0,0,0,0,0,0,0,0,0,0,0,0]","[0.00010000000111176632,0.07150000000004297,0.08020000000033178,0.10180000000036671,0.11310000000045761,0.1341000000010979,0.15310000000133073,0.17389999999974748,0.20250000000126533,0.21360000000092327,0.2340999999996427,0.25309999999987554,0.27330000000074506,0.2938000000013119,0.3129000000008091,0.3341000000000349,0.36300000000119326,0.37420000000022924,0.3919000000005042,0.4099000000005901,0.4304000000011001,0.44900000000052387,0.46740000000136206,0.4938000000001921,0.5135000000009313,0.5263000000013562,0.5558000000000618,0.5729000000010558,0.6036000000003412,0.6231000000007043,0.6434000000008382,0.6655000000009466,0.676500000001397,0.6959000000006483,0.715900000001028,0.7350999999999033,0.755100000000283,0.7744000000002131,0.8121000000009815,0.8214000000007218,0.8479000000006636,0.8585000000002481,0.8770999999997287,0.8963000000003376,0.9158000000006439,0.9354000000002713,0.965900000001028,0.9772000000011758,1.0056999999996776,1.020700000000943,1.0379000000011445,1.05370000000039,1.0799999999998988,1.0990000000001316,1.1095000000005086,1.1284000000014203,1.148300000000745,1.168600000000879,1.2049000000006345,1.2224000000005901,1.2447000000010746,1.255500000001149,1.2826000000004854,1.2937000000001433,1.3117000000002292,1.3294999999998254,1.348299999999682,1.3657000000002597,1.3834000000006483,1.4104000000006636,1.421200000000681,1.4475000000001899,1.4660999999996704,1.4767000000011024,1.5071000000006904,1.5203000000001339,1.5362999999997555,1.554799999999915,1.57980000000137,1.5900000000001455,1.6172000000005937,1.6280999999998755,1.6460999999999615,1.6634000000012747,1.694500000001426,1.7165000000004227,1.7282000000013795,1.7481000000007043,1.779500000000553,1.790899999999965,1.811600000000908,1.8330000000005668,1.862400000000008,1.874100000000908,1.895099999999701,1.9140999999999337,1.9331000000001666,1.953300000001036,1.973299999999682,1.9921000000012725,2.011099999999715,2.032100000000355,2.062400000000679,2.0756000000001222,2.0961999999999534,2.115999999999957,2.136500000000524,2.1568000000006577,2.1761999999998523,2.197799999999887,2.2276000000001943,2.2494000000006054,2.2715000000007137,2.3032000000002597,2.3211000000010245,2.3356999999996333,2.353399999999965,2.3693000000003224,2.3901000000005297,2.4091000000007625,2.431099999999759,2.459700000001277,2.4704000000001827,2.4902000000001863,2.509200000000419,2.539600000000064,2.5531000000009954,2.569500000001426,2.6064000000005763,2.62130000000073,2.6432999999997264,2.663099999999787,2.6745000000009895,2.694500000001426,2.7139000000006206,2.733500000000248,2.770800000000264,2.7961000000014167,2.814100000001389,2.825500000000858,2.862600000000384,2.880100000000283,2.900800000001226,2.9115000000001316,2.931500000000625,2.9511000000002525,2.97190000000046,3.0007999999997708,3.0236999999997636,3.0362999999997555,3.0559000000012304,3.086699999999837,3.1027000000012492,3.1180999999996857,3.135700000000753,3.153299999999973,3.172400000001261,3.190099999999802,3.2085999999999615,3.2265999999999337,3.2447000000010746,3.265800000001036,3.284700000000157,3.3054000000011,3.3258999999998196,3.345900000000256,3.364000000001397,3.400499999999738,3.4193000000013853,3.4364999999997963,3.4606999999996333,3.481300000001312,3.4932000000007974,3.512800000000425,3.5321999999996194,3.55249999999981,3.5884999999998684,3.614700000000113,3.6216999999996915,3.6602000000002874,3.6743999999998778,3.695600000000951,3.714200000000318,3.7357000000010885,3.7546000000002095,3.7751000000007764,3.794700000000404,3.815200000000914,3.844399999999922,3.854699999999866,3.8738000000012107,3.9025000000001455,3.922099999999773,3.934000000001106,3.953300000001036,3.971700000000027,3.99240000000097,4.023000000001048,4.043499999999767,4.0636000000013155,4.086000000001121,4.100599999999787,4.117200000000594,4.1460999999999615,4.157400000000052,4.175199999999705,4.195400000000518,4.214600000001184,4.245300000000469,4.255800000000846,4.285900000000737,4.3010000000013235,4.318000000001149,4.342700000001059,4.36280000000076,4.3851000000013585,4.410100000000966,4.421200000000681,4.441399999999703,4.4613000000008185,4.480900000000446,4.5035000000007415,4.521500000000714,4.540800000000644,4.560400000000271,4.57930000000124,4.59810000000104,4.6274000000012165,4.638300000000555,4.665500000000947,4.6760000000013235,4.694199999999938,4.712300000001079,4.729400000000169,4.74750000000131,4.766000000001412,4.782300000000788,4.803799999999654,4.825300000000425,4.847200000000157,4.877500000000481,4.89890000000014,4.922900000001391,4.938400000000939,4.960100000000239,4.9789000000000385,4.998700000000099,5.016999999999825,5.036900000000998,5.057300000000396,5.0762000000013074,5.095100000000485,5.114800000001168,5.135299999999887,5.164099999999934,5.183000000000902,5.20310000000066,5.215700000000652,5.235400000001391,5.263100000000122,5.283600000000632,5.304799999999915,5.3158000000003085,5.335900000000066,5.356300000001312,5.386400000001203,5.398600000000442,5.415100000000194,5.433700000001409,5.451700000001438,5.4718000000011955,5.496399999999994,5.5097000000004925,5.526499999999942,5.54490000000078,5.561600000000908,5.587999999999738,5.607700000000477,5.626200000000637,5.637000000000597,5.656899999999922,5.676300000001021,5.695700000000215,5.717700000001059,5.735899999999674,5.754700000001321,5.775100000000776,5.806700000001001,5.818400000000111,5.835800000000745,5.855600000000749,5.875500000000073,5.894700000000739,5.916300000000774,5.945100000000821,5.9652000000005785,5.983000000000175,5.998499999999666,6.024900000000343,6.035499999999985,6.062799999999697,6.08350000000064,6.103600000000341,6.115600000000995,6.153000000000276,6.1664000000000385,6.181099999999759,6.1992000000009,6.219699999999619,6.249400000000605,6.264400000000023,6.28150000000096,6.297800000000279,6.317600000000283,6.3363000000008185,6.356700000000274,6.38839999999982,6.398300000000745,6.425699999999779,6.435999999999666,6.455500000000029,6.474400000000998,6.491900000000896,6.526100000000923,6.540399999999892,6.5504000000000815,6.569400000000314,6.589400000000751,6.620200000001205,6.630800000000846,6.651600000001054,6.682399999999717,6.6976000000013585,6.713999999999942,6.733900000001114,6.752500000000481,6.773100000000369,6.80249999999981,6.822900000001056,6.85109999999986,6.866400000000823,6.880600000000413,6.908300000000935,6.919200000000274,6.936400000000532,6.956100000001214,6.976800000000367,7.007200000000012,7.017700000000332,7.035300000001342,7.053600000001126,7.072299999999814,7.100000000000392,7.113199999999779,7.129899999999907,7.147300000000541,7.163900000001405,7.181700000001001,7.19850000000045,7.227899999999892,7.248100000000704,7.263800000000629,7.289800000000497,7.3004000000000815,7.318100000000413,7.338300000001226,7.357600000001156,7.377300000000105,7.397100000000108,7.416300000000774,7.436600000000908,7.455400000000765,7.476300000000236,7.505300000000716,7.516000000001412,7.5349999999998545,7.569100000000617,7.580500000000029,7.596100000000632,7.612699999999705,7.630000000001019,7.647600000000239,7.663900000001405,7.688700000000637,7.6992000000009,7.716400000001158,7.735300000000279,7.7535000000007415,7.771399999999659,7.789399999999631,7.806700000001001,7.8242000000009,7.841400000001158,7.872300000000877,7.884100000001098,7.914300000000367,7.929100000001199,7.947100000001228,7.965600000001331,7.984700000000885,8.015699999999924,8.028900000001158,8.048200000001088,8.065400000001347,8.09640000000033,8.117500000000291,8.129100000000136,8.148600000000442,8.16820000000007,8.18829999999977,8.208000000000567,8.22609999999986,8.24800000000144,8.265300000000963,8.297000000000509,8.316000000000741,8.329700000000201,8.357100000001083,8.3679000000011,8.387599999999992,8.40700000000109,8.437799999999697,8.448300000000017,8.480300000001051,8.500200000000376,8.511900000001333,8.531899999999922,8.5625,8.57880000000111,8.59519999999975,8.615200000000186,8.63500000000019,8.65359999999967,8.674800000000687,8.695999999999913,8.728800000000774,8.745500000000902,8.768299999999726,8.779099999999744,8.799399999999878,8.829499999999825,8.849200000000565,8.861700000001292,8.889800000000832,8.901499999999942,8.920000000000101,8.942000000000888,8.960000000000974,8.98149999999984,9.01090000000113,9.027900000000955,9.045000000000101,9.069999999999709,9.080100000001067,9.09820000000036,9.128300000000309,9.144200000000609,9.167800000001051,9.177999999999884,9.196200000000346,9.21900000000096,9.23880000000102,9.258100000000951,9.278299999999973,9.29860000000005,9.317300000000586,9.348799999999756,9.376600000001389,9.395599999999831,9.414300000000367,9.427100000000792,9.446600000001098,9.476000000000539,9.507700000000085,9.592000000000553,9.629399999999833,9.652900000000955,9.672599999999903,9.697400000000926,9.720500000001238,9.743200000000797,9.766000000001412,9.780399999999645,9.793700000000143,9.820999999999913,9.842500000000683,9.865600000000995,9.887599999999992,9.910100000000966,9.93109999999976,9.953300000001036,9.974500000000262,9.98660000000018,10.005699999999678,10.024999999999608,10.055599999999686,10.075500000000858,10.09350000000083,10.118200000000797,10.139100000000326,10.16110000000117,10.18380000000073,10.2021000000004,10.22320000000036,10.246900000000124,10.269600000001475,10.291600000000471,10.302800000001298,10.322600000001358,10.343800000000527,10.373900000000532,10.399900000000343,10.422000000000509,10.435199999999895,10.465799999999973,10.477300000000497,10.496000000001033,10.515000000001265,10.543499999999767,10.564800000000105,10.587100000000646,10.612400000000008,10.634700000000493,10.657600000000485,10.680700000000797,10.704499999999825,10.728900000000039,10.752599999999802,10.774999999999608,10.794600000001083,10.819199999999938,10.840400000000955,10.866299999999654,10.888000000000858,10.911900000000998,10.935199999999895,10.958400000001319,10.980000000001354,11.003500000000741,11.028900000001158,11.052600000000865,11.074800000000295,11.093300000000454,11.11859999999976,11.140199999999794,11.152700000000578,11.184699999999822,11.1963000000014,11.215900000001028,11.235000000000582,11.25460000000021,11.273400000000066,11.290000000000873,11.309400000000124,11.335399999999936,11.354800000000978,11.377599999999802,11.39969999999991,11.421700000000811,11.443100000000413,11.467200000000986,11.479800000000978,11.502599999999802,11.532100000000355,11.553900000000823,11.57639999999995,11.59860000000117,11.62039999999979,11.643299999999726,11.665500000000947,11.694700000000012,11.709000000000714,11.733600000001417,11.76389999999995,11.782400000000052,11.804500000000218,11.82589999999982,11.84810000000104,11.859200000000811,11.879500000000888,11.910300000001342,11.930000000000291,11.960100000000239,11.980600000000749,12.004200000001191,12.028200000000652,12.051100000000588,12.0742000000009,12.097300000001269,12.120700000001335,12.14350000000016,12.168600000000879,12.190200000000914,12.21270000000004,12.23490000000126,12.26270000000116,12.288200000000842,12.310100000000574,12.334100000000035,12.354300000000904,12.377700000000914,12.400900000000547,12.42580000000089,12.44840000000113,12.459600000000108,12.481100000000879,12.503099999999876,12.534499999999724,12.553900000000823,12.577300000000832,12.600500000000466,12.622600000000574,12.64010000000053,12.656399999999849,12.67870000000039,12.710399999999936,12.731100000000879,12.742299999999915,12.776200000000244,12.798800000000483,12.811400000000532,12.832900000001246,12.853600000000341,12.8867000000009,12.90899999999965,12.929299999999785,12.952500000001265,12.977200000001176,12.999800000001414,13.022300000000541,13.04070000000138,13.067600000000283,13.088300000001226,13.11030000000028,13.133900000000722,13.145900000001319,13.169700000000404,13.20089999999982,13.212000000001382,13.23490000000126,13.268700000000536,13.286200000000434,13.297300000000206,13.318100000000413,13.34640000000033,13.367799999999988,13.388200000001234,13.4116000000013,13.435800000001137,13.458800000000338,13.473299999999682,13.503200000001044,13.525300000001153,13.539300000000367,13.556800000000322,13.578300000001036,13.612200000001366,13.636400000001203,13.660300000001342,13.683700000001409,13.707000000000306,13.723299999999682,13.751600000001389,13.762400000001463,13.798899999999747,13.817700000001452,13.847600000000966,13.86330000000089,13.875,13.893799999999857,13.912599999999657,13.931500000000625,13.95020000000116,13.968200000001133,13.998600000000835,14.018200000000462,14.040000000000873,14.062700000000376,14.076100000000253,14.109000000000378,14.13090000000011,14.152299999999713,14.177100000000792,14.199900000001463,14.224000000000132,14.248400000000402,14.27100000000064,14.293499999999767,14.317399999999907,14.339600000001184,14.354800000000978,14.370700000001335,14.392400000000634,14.42410000000018,14.438200000000506,14.46440000000075,14.475500000000466,14.49460000000002,14.5146000000004,14.533400000000256,14.55130000000102,14.56960000000069,14.590299999999843,14.616100000001126,14.644900000001172,14.661000000000058,14.681400000001304,14.70089999999982,14.723799999999756,14.745100000000093,14.758400000000648,14.792100000000602,14.80370000000039,14.832800000000134,14.854100000000471,14.877200000000784,14.901300000001356,14.924900000000008,14.947000000000116,14.970000000001164,14.994500000000698,15.017499999999899,15.040399999999892,15.06340000000094,15.085399999999936,15.10820000000055,15.131900000000314,15.159800000001269,15.184400000000124,15.210900000000066,15.234400000001187,15.258200000000215,15.281600000000225,15.305700000000797,15.326700000001438,15.349000000000132,15.371200000001409,15.395400000001246,15.418100000000749,15.441399999999703,15.465000000000146,15.486500000000916,15.505500000001149,15.532100000000355,15.552900000000562,15.571200000000346,15.590299999999843,15.603100000000268,15.634600000001228,15.656200000001263,15.677700000000186,15.699000000000524,15.710300000000672,15.730300000001051,15.7617000000009,15.782600000000485,15.806700000001001,15.819400000000314,15.847999999999985,15.874900000000679,15.902400000000881,15.929400000000896,15.951100000000253,15.97310000000104,15.997800000001007,16.02100000000064,16.045100000001156,16.066200000001118,16.089100000001054,16.11280000000076,16.133600000001024,16.157900000000183,16.180200000000667,16.203600000000733,16.22820000000138,16.24990000000068,16.27380000000082,16.298099999999977,16.31770000000145,16.337900000000474,16.364199999999983,16.37510000000111,16.407100000000355,16.43029999999999,16.444300000000993,16.48240000000078,16.4958000000006,16.517600000001067,16.538400000001275,16.571600000001098,16.594300000000658,16.60649999999984,16.640900000000357,16.664099999999934,16.686800000001284,16.71130000000082,16.733500000000248,16.75550000000115,16.77930000000012,16.804600000001273,16.829499999999825,16.85189999999963,16.874400000000605,16.898300000000745,16.921599999999643,16.94590000000065,16.969100000000225,16.990300000001298,17.014800000000832,17.038700000000972,17.059400000000124,17.081200000000536,17.10410000000047,17.124400000000605,17.147000000000844,17.169700000000404,17.19250000000102,17.20480000000137,17.23790000000008,17.260299999999887,17.270800000000264,17.291699999999736,17.313200000000506,17.33430000000041,17.35530000000105,17.3896000000004,17.40650000000096,17.427200000000113,17.447799999999887,17.469200000001393,17.491299999999654,17.502800000000178,17.52230000000054,17.5541000000012,17.57760000000053,17.596199999999953,17.626100000001315,17.638700000001307,17.6700000000001,17.69100000000074,17.715299999999843,17.739100000000718,17.762599999999992,17.786000000000058,17.812200000000303,17.837100000000646,17.86110000000005,17.88260000000082,17.907500000001164,17.928499999999957,17.952800000000963,17.97429999999983,17.998300000001137,18.020300000000134,18.04310000000075,18.065700000001044,18.083000000000567,18.110899999999674,18.13039999999998,18.141700000000128,18.161400000000867,18.18550000000144,18.203999999999752,18.22789999999989,18.25920000000042,18.271200000001016,18.29200000000128,18.31329999999977,18.346300000001065,18.369700000001075,18.39180000000124,18.404900000001362,18.440099999999802,18.46429999999964,18.488699999999852,18.514900000000097,18.53939999999963,18.56210000000098,18.585800000000745,18.599500000000262,18.617200000000594,18.63770000000116,18.658300000000935,18.678799999999654,18.697900000001056,18.719300000000658,18.752300000000105,18.77390000000014,18.797599999999903,18.815700000001044,18.83350000000064,18.868800000000192,18.889200000001438,18.900300000001153,18.92200000000051,18.953500000001412,18.976700000001102,18.99880000000121,19.022200000001277,19.044200000000274,19.05590000000123,19.077699999999794,19.109599999999773,19.129800000000586,19.152900000000955,19.18450000000118,19.203300000001036,19.215500000000276,19.237600000000384,19.270000000000437,19.29200000000128,19.311999999999927,19.33510000000024,19.357299999999668,19.369000000000625,19.38969999999972,19.411000000000058,19.444900000000388,19.46010000000024,19.47950000000128,19.520700000000943,19.54280000000105,19.553799999999654,19.575700000001234,19.608100000001286,19.61909999999989,19.63969999999972,19.67120000000068,19.698100000001432,19.717099999999817,19.740300000001298,19.75209999999973,19.77400000000125,19.794600000001083,19.81750000000102,19.84810000000104,19.864300000001094,19.880600000000413,19.90780000000086,19.928600000001126,19.940300000000178,19.960699999999633,19.98160000000101,20.011900000001333,20.026600000001054,20.046800000000076,20.08060000000114,20.095800000000935,20.10990000000126,20.13420000000042,20.167699999999996,20.191600000000136,20.21310000000085,20.241500000000087,20.253200000001044,20.293900000000576,20.320999999999913,20.349500000000262,20.37850000000074,20.399900000000343,20.42460000000031,20.448900000001203,20.472900000000664,20.49539999999979,20.526300000001356,20.55590000000123,20.58520000000135,20.610099999999903,20.63020000000145,20.650900000000547,20.676199999999852,20.69590000000065,20.71889999999985,20.7429000000011,20.76560000000066,20.78139999999985,20.81240000000068,20.83350000000064,20.854800000000978,20.878899999999703,20.902000000000015,20.925500000001193,20.949800000000295,20.972900000000664,20.997800000001007,21.020000000000437,21.04280000000105,21.06500000000048,21.080400000000765]",21.1809,,21.1809,21.1809,"[0,-0.6]",,21.1809,9.6083,21.1809,"[0.5,0.7]",11.5726,5.4623,6.1103,9.6083,Acepta,0,0,0,0,0,1,0,25,Train,Otro,5,3,25,10,,,,,,,,,,,,,,,,,,,,,,,,,,,
,,,,,,,,,,,,,20858232,2021-04-21_09h51.34.576,DictadorBinary,2021.1.4,Linux armv7l,60.07449237,0.825925991,-0.795508159,1,0,0,partition_image,Otro,"[0.8259259905133929,0.8259259905133929,0.8259259905133929,0.8259259905133929,0.8351851482780612,0.844444430604273,0.844444430604273,0.844444430604273,0.844444430604273,0.844444430604273,0.844444430604273,0.844444430604273,0.844444430604273,0.844444430604273,0.844444430604273,0.844444430604273,0.844444430604273,0.844444430604273,0.844444430604273,0.844444430604273,0.844444430604273,0.844444430604273,0.844444430604273,0.844444430604273,0.844444430604273,0.844444430604273,0.844444430604273,0.844444430604273,0.844444430604273,0.844444430604273,0.844444430604273,0.844444430604273,0.844444430604273,0.844444430604273,0.844444430604273,0.844444430604273,0.844444430604273,0.844444430604273,0.844444430604273,0.844444430604273,0.844444430604273,0.844444430604273,0.844444430604273,0.844444430604273,0.844444430604273,0.844444430604273,0.844444430604273,0.844444430604273,0.844444430604273,0.844444430604273,0.844444430604273,0.844444430604273,0.844444430604273,0.844444430604273,0.844444430604273,0.844444430604273,0.844444430604273,0.844444430604273,0.844444430604273,0.844444430604273,0.844444430604273,0.844444430604273,0.844444430604273,0.844444430604273,0.844444430604273,0.844444430604273,0.844444430604273,0.844444430604273,0.844444430604273,0.844444430604273,0.844444430604273,0.844444430604273,0.844444430604273,0.844444430604273,0.844444430604273,0.844444430604273,0.844444430604273,0.844444430604273,0.844444430604273,0.844444430604273,0.844444430604273,0.844444430604273,0.844444430604273,0.844444430604273,0.844444430604273,0.844444430604273,0.844444430604273,0.844444430604273,0.844444430604273,0.844444430604273,0.844444430604273,0.844444430604273,0.844444430604273,0.844444430604273,0.844444430604273,0.844444430604273,0.844444430604273,0.844444430604273,0.844444430604273,0.844444430604273,0.844444430604273,0.844444430604273,0.844444430604273,0.844444430604273,0.844444430604273,0.844444430604273,0.844444430604273,0.844444430604273,0.844444430604273,0.844444430604273,0.844444430604273,0.844444430604273,0.844444430604273,0.844444430604273,0.844444430604273,0.844444430604273,0.844444430604273,0.844444430604273,0.844444430604273,0.844444430604273,0.844444430604273,0.844444430604273,0.844444430604273,0.844444430604273,0.844444430604273,0.844444430604273,0.844444430604273,0.012962995256696428,0.012962995256696428,0.012962995256696428,0.012962995256696428,0.012962995256696428,0.012962995256696428,0.012962995256696428,0.012962995256696428,0.012962995256696428,0.012962995256696428,0.012962995256696428,0.012962995256696428,0.012962995256696428,0.012962995256696428,0.012962995256696428,0.012962995256696428,0.012962995256696428,0.012962995256696428,0.012962995256696428,0.012962995256696428,0.012962995256696428,0.012962995256696428,0.012962995256696428,0.012962995256696428,0.012962995256696428,0.012962995256696428,0.012962995256696428,0.012962995256696428,0.012962995256696428,0.012962995256696428,0.012962995256696428,0.012962995256696428,0.012962995256696428,0.012962995256696428,0.012962995256696428,0.012962995256696428,0.012962995256696428,0.012962995256696428,0.012962995256696428,0.012962995256696428,0.012962995256696428,0.012962995256696428,0.012962995256696428,0.012962995256696428,0.012962995256696428,0.012962995256696428,0.012962995256696428,0.014814789441167093,0.014814789441167093,0.014814789441167093,0.014814789441167093,0.014814789441167093,0.014814789441167093,0.014814789441167093,0.014814789441167093,0.014814789441167093,0.014814789441167093,0.014814789441167093,0.014814789441167093,0.014814789441167093,0.014814789441167093,0.014814789441167093,0.014814789441167093,0.014814789441167093,0.014814789441167093,0.014814789441167093,0.014814789441167093,0.014814789441167093,0.014814789441167093,0.014814789441167093,0.014814789441167093,0.014814789441167093,0.014814789441167093,0.014814789441167093,0.014814789441167093,0.014814789441167093,0.014814789441167093,0.014814789441167093,0.014814789441167093,0.014814789441167093,0.014814789441167093,0.014814789441167093,0.014814789441167093,0.014814789441167093,0.014814789441167093,0.014814789441167093,0.014814789441167093,0.014814789441167093,0.014814789441167093,0.014814789441167093,0.014814789441167093,0.014814789441167093,0.014814789441167093,0.014814789441167093,0.014814789441167093,0.014814789441167093,0.014814789441167093,0.014814789441167093,0.014814789441167093,0.014814789441167093,0.014814789441167093,0.014814789441167093,0.014814789441167093,0.014814789441167093,0.014814789441167093,0.014814789441167093,0.014814789441167093,0.014814789441167093,0.014814789441167093,0.014814789441167093,0.014814789441167093,0.014814789441167093,0.014814789441167093,0.014814789441167093,0.014814789441167093,0.014814789441167093,0.014814789441167093,0.014814789441167093,0.014814789441167093,0.014814789441167093,0.014814789441167093,0.014814789441167093,0.014814789441167093,0.014814789441167093,0.014814789441167093,0.014814789441167093,0.014814789441167093,0.014814789441167093,0.014814789441167093,0.014814789441167093,0.014814789441167093,0.014814789441167093,0.014814789441167093,0.018518502371651785,0.02222221530213648,0.025925928232621173,0.027777722417091838,0.027777722417091838,0.03148143534757653,0.033333291812818876,0.03703700474330357,0.042592574139030615,0.051851856465242346,0.06481485172193878,0.07407400948660714,0.08888886120854592,0.10925928232621174,0.13148143534757653,0.1462962870695153,0.17222227758290817,0.2,0.22777772241709185,0.2462962870695153,0.2666665836256378,0.2796295788823342,0.2888888612085459,0.30555556939572703,0.31296287069515305,0.32777772241709185,0.3333332918128189,0.3462962870695153,0.355555569395727,0.36296287069515304,0.37407400948660713,0.3796295788823342,0.38888886120854593,0.4,0.40740730129942604,0.4166667081871811,0.4240740094866071]","[-0.7955081587987589,-0.7955081587987589,-0.7955081587987589,-0.7955081587987589,-0.7916469276374114,-0.7864985039893617,-0.7864985039893617,-0.7864985039893617,-0.7864985039893617,-0.7864985039893617,-0.7864985039893617,-0.7864985039893617,-0.7864985039893617,-0.7864985039893617,-0.7864985039893617,-0.7864985039893617,-0.7864985039893617,-0.7864985039893617,-0.7864985039893617,-0.7864985039893617,-0.7864985039893617,-0.7864985039893617,-0.7864985039893617,-0.7864985039893617,-0.7864985039893617,-0.7864985039893617,-0.7864985039893617,-0.7864985039893617,-0.7864985039893617,-0.7864985039893617,-0.7864985039893617,-0.7864985039893617,-0.7864985039893617,-0.7864985039893617,-0.7864985039893617,-0.7864985039893617,-0.7864985039893617,-0.7864985039893617,-0.7864985039893617,-0.7864985039893617,-0.7864985039893617,-0.7864985039893617,-0.7864985039893617,-0.7864985039893617,-0.7864985039893617,-0.7864985039893617,-0.7864985039893617,-0.7864985039893617,-0.7864985039893617,-0.7864985039893617,-0.7864985039893617,-0.7864985039893617,-0.7864985039893617,-0.7864985039893617,-0.7864985039893617,-0.7864985039893617,-0.7864985039893617,-0.7864985039893617,-0.7864985039893617,-0.7864985039893617,-0.7864985039893617,-0.7864985039893617,-0.7864985039893617,-0.7864985039893617,-0.7864985039893617,-0.7864985039893617,-0.7864985039893617,-0.7864985039893617,-0.7864985039893617,-0.7864985039893617,-0.7864985039893617,-0.7864985039893617,-0.7864985039893617,-0.7864985039893617,-0.7864985039893617,-0.7864985039893617,-0.7864985039893617,-0.7864985039893617,-0.7864985039893617,-0.7864985039893617,-0.7864985039893617,-0.7864985039893617,-0.7864985039893617,-0.7864985039893617,-0.7864985039893617,-0.7864985039893617,-0.7864985039893617,-0.7864985039893617,-0.7864985039893617,-0.7864985039893617,-0.7864985039893617,-0.7864985039893617,-0.7864985039893617,-0.7864985039893617,-0.7864985039893617,-0.7864985039893617,-0.7864985039893617,-0.7864985039893617,-0.7864985039893617,-0.7864985039893617,-0.7864985039893617,-0.7864985039893617,-0.7864985039893617,-0.7864985039893617,-0.7864985039893617,-0.7864985039893617,-0.7864985039893617,-0.7864985039893617,-0.7864985039893617,-0.7864985039893617,-0.7864985039893617,-0.7864985039893617,-0.7864985039893617,-0.7864985039893617,-0.7864985039893617,-0.7864985039893617,-0.7864985039893617,-0.7864985039893617,-0.7864985039893617,-0.7864985039893617,-0.7864985039893617,-0.7864985039893617,-0.7864985039893617,-0.7864985039893617,-0.7864985039893617,-0.7864985039893617,-0.7864985039893617,-0.5869975205008865,-0.5869975205008865,-0.5869975205008865,-0.5869975205008865,-0.5869975205008865,-0.5869975205008865,-0.5869975205008865,-0.5869975205008865,-0.5869975205008865,-0.5869975205008865,-0.5869975205008865,-0.5869975205008865,-0.5869975205008865,-0.5869975205008865,-0.5869975205008865,-0.5869975205008865,-0.5869975205008865,-0.5869975205008865,-0.5869975205008865,-0.5869975205008865,-0.5869975205008865,-0.5869975205008865,-0.5869975205008865,-0.5869975205008865,-0.5869975205008865,-0.5869975205008865,-0.5869975205008865,-0.5869975205008865,-0.5869975205008865,-0.5869975205008865,-0.5869975205008865,-0.5869975205008865,-0.5869975205008865,-0.5869975205008865,-0.5869975205008865,-0.5869975205008865,-0.5869975205008865,-0.5869975205008865,-0.5869975205008865,-0.5869975205008865,-0.5869975205008865,-0.5869975205008865,-0.5869975205008865,-0.5869975205008865,-0.5869975205008865,-0.5869975205008865,-0.5869975205008865,-0.5818490968528369,-0.5818490968528369,-0.5818490968528369,-0.5818490968528369,-0.5818490968528369,-0.5818490968528369,-0.5818490968528369,-0.5818490968528369,-0.5818490968528369,-0.5818490968528369,-0.5818490968528369,-0.5818490968528369,-0.5818490968528369,-0.5818490968528369,-0.5818490968528369,-0.5818490968528369,-0.5818490968528369,-0.5818490968528369,-0.5818490968528369,-0.5818490968528369,-0.5818490968528369,-0.5818490968528369,-0.5818490968528369,-0.5818490968528369,-0.5818490968528369,-0.5818490968528369,-0.5818490968528369,-0.5818490968528369,-0.5818490968528369,-0.5818490968528369,-0.5818490968528369,-0.5818490968528369,-0.5818490968528369,-0.5818490968528369,-0.5818490968528369,-0.5818490968528369,-0.5818490968528369,-0.5818490968528369,-0.5818490968528369,-0.5818490968528369,-0.5818490968528369,-0.5818490968528369,-0.5818490968528369,-0.5818490968528369,-0.5818490968528369,-0.5818490968528369,-0.5818490968528369,-0.5818490968528369,-0.5818490968528369,-0.5818490968528369,-0.5818490968528369,-0.5818490968528369,-0.5818490968528369,-0.5818490968528369,-0.5818490968528369,-0.5818490968528369,-0.5818490968528369,-0.5818490968528369,-0.5818490968528369,-0.5818490968528369,-0.5818490968528369,-0.5818490968528369,-0.5818490968528369,-0.5818490968528369,-0.5818490968528369,-0.5818490968528369,-0.5818490968528369,-0.5818490968528369,-0.5818490968528369,-0.5818490968528369,-0.5818490968528369,-0.5818490968528369,-0.5818490968528369,-0.5818490968528369,-0.5818490968528369,-0.5818490968528369,-0.5818490968528369,-0.5818490968528369,-0.5818490968528369,-0.5818490968528369,-0.5818490968528369,-0.5818490968528369,-0.5818490968528369,-0.5818490968528369,-0.5818490968528369,-0.5818490968528369,-0.5715524227061171,-0.5612555754100177,-0.5522457474512411,-0.5445232851285461,-0.5303652066710993,-0.5110585314162234,-0.4969004529587766,-0.4698713153812057,-0.4428421778036348,-0.41323865525265957,-0.3797740746897163,-0.35660625484818265,-0.3218544817985372,-0.28452858349955673,-0.24334119431515958,-0.21631197016289894,-0.17126343639184397,-0.12106639239804964,-0.06572109790558511,-0.028395026457225178,0.02695035460992908,0.07586029269171099,0.11061206574135639,0.18268973708998226,0.21744151013962765,0.2817967191655585,0.31268717447916666,0.3590228574495789,0.38862620685117466,0.43238767799756206,0.4825847219913564,0.5006041181848404,0.5250591305130763,0.5508011621786347,0.5675334957474513,0.5907013588763298,0.6125820728058511]","[1,1,1,1,1,0,0,0,0,0,0,0,0,0,0,0,0,0,0,0,0,0,0,0,0,0,0,0,0,0,0,0,0,0,0,0,0,0,0,0,0,0,0,0,0,0,0,0,0,0,0,0,0,0,0,0,0,0,0,0,0,0,0,0,0,0,0,0,0,0,0,0,0,0,0,0,0,0,0,0,0,0,0,0,0,0,0,0,0,0,0,0,0,0,0,0,0,0,0,0,0,0,0,0,0,0,0,0,0,0,0,0,0,0,0,0,0,0,0,0,0,0,0,0,0,0,0,1,1,0,0,0,0,0,0,0,0,0,0,0,0,0,0,0,0,0,0,0,0,0,0,0,0,0,0,0,0,0,0,0,0,0,0,0,0,0,0,0,0,0,0,0,0,0,1,1,1,1,1,1,1,1,1,1,1,1,1,1,1,1,1,1,1,1,1,1,1,1,1,1,1,1,1,1,1,1,1,1,1,1,1,1,1,1,1,1,1,1,1,1,1,1,1,1,1,1,1,1,1,1,1,1,1,1,1,1,1,1,1,1,1,1,1,1,1,1,1,1,1,1,1,1,1,1,1,1,1,1,1,1,1,1,1,1,1,1,1,1,1,1,1,1,1,1,1,1,1,1,1,1,1,1,1,1,1,1,1,1,1,1,1,1,1,1,1,1,1]","[0,0,0,0,0,0,0,0,0,0,0,0,0,0,0,0,0,0,0,0,0,0,0,0,0,0,0,0,0,0,0,0,0,0,0,0,0,0,0,0,0,0,0,0,0,0,0,0,0,0,0,0,0,0,0,0,0,0,0,0,0,0,0,0,0,0,0,0,0,0,0,0,0,0,0,0,0,0,0,0,0,0,0,0,0,0,0,0,0,0,0,0,0,0,0,0,0,0,0,0,0,0,0,0,0,0,0,0,0,0,0,0,0,0,0,0,0,0,0,0,0,0,0,0,0,0,0,0,0,0,0,0,0,0,0,0,0,0,0,0,0,0,0,0,0,0,0,0,0,0,0,0,0,0,0,0,0,0,0,0,0,0,0,0,0,0,0,0,0,0,0,0,0,0,0,0,0,0,0,0,0,0,0,0,0,0,0,0,0,0,0,0,0,0,0,0,0,0,0,0,0,0,0,0,0,0,0,0,0,0,0,0,0,0,0,0,0,0,0,0,0,0,0,0,0,0,0,0,0,0,0,0,0,0,0,0,0,0,0,0,0,0,0,0,0,0,0,0,0,0,0,0,0,0,0,0,0,0,0,0,0,0,0,0,0,0,0,0,0,0,0,0,0,0,0,0,0,0,0,0,0,0,0,0,0,0,0,0,0,0,0,0,0,0,0,0,0]","[0,0,0,0,0,0,0,0,0,0,0,0,0,0,0,0,0,0,0,0,0,0,0,0,0,0,0,0,0,0,0,0,0,0,0,0,0,0,0,0,0,0,0,0,0,0,0,0,0,0,0,0,0,0,0,0,0,0,0,0,0,0,0,0,0,0,0,0,0,0,0,0,0,0,0,0,0,0,0,0,0,0,0,0,0,0,0,0,0,0,0,0,0,0,0,0,0,0,0,0,0,0,0,0,0,0,0,0,0,0,0,0,0,0,0,0,0,0,0,0,0,0,0,0,0,0,0,0,0,0,0,0,0,0,0,0,0,0,0,0,0,0,0,0,0,0,0,0,0,0,0,0,0,0,0,0,0,0,0,0,0,0,0,0,0,0,0,0,0,0,0,0,0,0,0,0,0,0,0,0,0,0,0,0,0,0,0,0,0,0,0,0,0,0,0,0,0,0,0,0,0,0,0,0,0,0,0,0,0,0,0,0,0,0,0,0,0,0,0,0,0,0,0,0,0,0,0,0,0,0,0,0,0,0,0,0,0,0,0,0,0,0,0,0,0,0,0,0,0,0,0,0,0,0,0,0,0,0,0,0,0,0,0,0,0,0,0,0,0,0,0,0,0,0,0,0,0,0,0,0,0,0,0,0,0,0,0,0,0,0,0,0,0,0,0,0,0]","[0.00010000000111176632,0.006600000000617001,0.029500000000552973,0.0411000000003412,0.06450000000040745,0.08849999999986835,0.11419999999998254,0.12560000000124205,0.1434000000008382,0.16390000000140503,0.19180000000051223,0.21010000000023865,0.2205000000012376,0.23840000000015493,0.25870000000034565,0.28960000000006403,0.3018000000010943,0.3320000000003063,0.35940000000118744,0.37080000000059954,0.39069999999992433,0.4212999999999454,0.4415000000008149,0.4526000000005297,0.4732999999996821,0.4930000000003645,0.511900000001333,0.5313000000005275,0.5514000000002852,0.5956000000005588,0.6026000000001943,0.626500000000334,0.6591000000007625,0.6696000000010827,0.6877000000003761,0.7069000000010419,0.7245000000002619,0.7429000000011001,0.7604000000010558,0.7782999999999731,0.796400000001114,0.8225000000001899,0.8343999999997322,0.852100000000064,0.8708999999998639,0.8916000000008069,0.9210000000002481,0.9408000000003085,0.9512000000013074,0.9710000000013679,0.9917000000005203,1.0100000000001899,1.040899999999965,1.0510000000013235,1.069100000000617,1.0896000000011838,1.1123000000006869,1.1293000000005122,1.1489000000001397,1.1792999999997846,1.190000000000481,1.2121999999999105,1.2435000000004948,1.2636000000002525,1.2974000000012609,1.3036000000011256,1.3230000000003201,1.343100000000078,1.3618000000006134,1.3818000000009931,1.4040000000004227,1.432399999999717,1.4526000000005297,1.4663000000000466,1.496500000001106,1.5071000000006904,1.5264000000006206,1.543600000000879,1.5608000000011373,1.5787000000000546,1.6054999999996937,1.6161000000011256,1.634100000001098,1.6664000000000385,1.6838999999999942,1.7149000000008812,1.734599999999773,1.7510000000002037,1.7727000000013504,1.7841000000007625,1.814000000000334,1.8263999999999498,1.844600000000355,1.8626999999997054,1.8950000000004366,1.9085000000013679,1.9261999999998523,1.9447000000000116,1.961699999999837,1.9789000000000385,1.9966999999996915,2.013200000001234,2.030399999999645,2.0601999999998952,2.0701000000008207,2.0888000000013562,2.118900000001304,2.1322000000000116,2.1480000000010477,2.1668000000009044,2.1921000000002095,2.2021000000003994,2.2291000000004715,2.2396000000007916,2.2663000000011095,2.281899999999922,2.2978000000002794,2.3170000000008883,2.3338000000003376,2.3708000000005995,2.381699999999938,2.397899999999936,2.4176999999999964,2.4351999999998952,2.455600000001141,2.475800000000163,2.5045000000008883,2.522000000000844,2.547700000000958,2.612600000000384,2.642799999999596,2.663300000000163,2.6819000000013773,2.7077000000008695,2.728800000000774,2.7496000000009815,2.7695000000003063,2.7996000000003107,2.8184000000001106,2.8410999999996704,2.866400000000823,2.881400000000241,2.9086000000006322,2.928900000000823,2.9399000000012165,2.960600000000369,2.979900000000299,3.010299999999887,3.0395000000007997,3.058600000000297,3.0794999999998254,3.0981000000010397,3.1141999999999825,3.130500000001149,3.149800000001079,3.180000000000291,3.2006000000001222,3.2216000000007625,3.244200000001001,3.266700000000128,3.2888000000002364,3.3104000000002713,3.333300000000264,3.347100000000893,3.36499999999981,3.385400000001056,3.4078000000008615,3.4376000000011118,3.4603000000006716,3.4808000000011816,3.4971000000005006,3.529099999999744,3.5488999999997475,3.569000000001296,3.5855000000010477,3.6171000000012725,3.631699999999938,3.653299999999973,3.6871000000009815,3.7092000000011467,3.7340000000003783,3.756199999999808,3.7803000000003806,3.804100000001199,3.8288000000011095,3.851000000000539,3.8720000000011794,3.8849000000009255,3.921000000000248,3.9397000000007836,3.963999999999942,3.9880000000011933,4.0108000000000175,4.041300000000774,4.04860000000005,4.071600000001098,4.093300000000454,4.125200000000376,4.1445999999996275,4.156100000000151,4.176400000000285,4.199099999999845,4.232500000000101,4.253700000001118,4.276400000000621,4.299600000000311,4.322000000000116,4.345800000000935,4.363100000000458,4.391600000000807,4.414800000000497,4.439100000001389,4.4511000000002525,4.471700000000027,4.491900000000896,4.514300000000702,4.543100000000749,4.5570000000006985,4.584600000000108,4.605800000001182,4.6274000000012165,4.650400000000474,4.674300000000613,4.6983000000000175,4.719500000001091,4.750700000000506,4.770099999999701,4.791300000000774,4.80199999999968,4.824000000000524,4.856700000000274,4.87840000000142,4.899100000000516,4.924900000000008,4.950000000000728,4.977899999999892,4.989600000000792,5.0097000000004925,5.029400000001289,5.0495000000009895,5.072100000001228,5.102100000000064,5.123199999999969,5.145599999999831,5.1766999999999825,5.182800000000469,5.205200000000332,5.225000000000392,5.245300000000469,5.267100000000937,5.288900000001405,5.3083000000005995,5.329999999999899,5.359800000000206,5.380000000001019,5.4012000000002445,5.424700000001366,5.44750000000019,5.4703000000008615,5.481600000001009,5.504700000001321,5.539000000000669,5.5625,5.578999999999752,5.601000000000539,5.623800000001211,5.64770000000135,5.671400000001114,5.693600000000544,5.718300000000454,5.740900000000693,5.7636000000002525,5.788300000000163,5.810400000000271,5.83350000000064,5.857500000000101,5.878800000000439,5.900700000000171,5.924399999999878,5.9472000000004925,5.9716000000007625,5.9929000000011,6.015500000001339,6.040800000000644,6.063000000000073,6.089299999999639,6.109599999999773,6.132600000000821,6.155700000001133,6.177700000000186,6.209600000000108,6.2293000000009044,6.254399999999833,6.274900000000343,6.297300000000206,6.320900000000648,6.343399999999775]",6.387,,6.387,6.387,"[0,-0.6]",,6.387,2.5913,6.387,"[0.5,0.7]",3.7957,3.1237,0.672,2.5913,Acepta,0,0,1,1,1,1,6,19,Train,Otro,5,3,25,10,,,,,,,,,,,,,,,,,,,,,,,,,,,
,,,,,,,,,,,,,20858232,2021-04-21_09h51.34.576,DictadorBinary,2021.1.4,Linux armv7l,60.07449237,0.774074009,-0.813527642,1,0,0,partition_image,Otro,"[0.7740740094866071,0.7740740094866071,0.7740740094866071,0.7740740094866071,0.7740740094866071,0.7740740094866071,0.7740740094866071,0.7740740094866071,0.7740740094866071,0.7740740094866071,0.7740740094866071,0.7740740094866071,0.7740740094866071,0.7740740094866071,0.7740740094866071,0.7740740094866071,0.7740740094866071,0.7740740094866071,0.7740740094866071,0.7740740094866071,0.7740740094866071,0.7740740094866071,0.7740740094866071,0.7740740094866071,0.7740740094866071,0.7740740094866071,0.7740740094866071,0.7740740094866071,0.7740740094866071,0.7740740094866071,0.7740740094866071,0.7740740094866071,0.7740740094866071,0.7740740094866071,0.7740740094866071,0.7740740094866071,0.7740740094866071,0.7740740094866071,0.7740740094866071,0.7740740094866071,0.7740740094866071,0.7740740094866071,0.7740740094866071,0.7740740094866071,-0.016666708187181124,-0.016666708187181124,-0.016666708187181124,-0.016666708187181124,-0.016666708187181124,-0.016666708187181124,-0.016666708187181124,-0.016666708187181124,-0.016666708187181124,-0.016666708187181124,-0.016666708187181124,-0.016666708187181124,-0.016666708187181124,-0.016666708187181124,-0.016666708187181124,-0.016666708187181124,-0.016666708187181124,-0.016666708187181124,-0.016666708187181124,-0.016666708187181124,-0.016666708187181124,-0.016666708187181124,-0.016666708187181124,-0.016666708187181124,-0.016666708187181124,-0.016666708187181124,-0.016666708187181124,-0.016666708187181124,-0.016666708187181124,-0.016666708187181124,-0.016666708187181124,-0.016666708187181124,-0.016666708187181124,-0.016666708187181124,-0.016666708187181124,-0.016666708187181124,-0.016666708187181124,0.03888886120854592,0.03888886120854592,0.03888886120854592,0.03888886120854592,0.03888886120854592,0.03888886120854592,0.03888886120854592,0.03888886120854592,0.03888886120854592,0.03888886120854592,0.03888886120854592,0.03888886120854592,0.03888886120854592,0.03888886120854592,0.03888886120854592,0.03888886120854592,0.03888886120854592,0.03888886120854592,0.03888886120854592,0.03888886120854592,0.03888886120854592,0.03888886120854592,0.03888886120854592,0.03888886120854592,0.03888886120854592,0.03888886120854592,0.03888886120854592,0.03888886120854592,0.03888886120854592,0.03888886120854592,0.03888886120854592,0.03888886120854592,0.03888886120854592,0.03703700474330357,0.035185148278061226,0.040740717673788264,0.051851856465242346,0.06851856465242347,0.09444443060427296,0.11296287069515307,0.14259257413903062,0.16666658362563774,0.18333329181281888,0.21296287069515307,0.25555556939572704,0.2925925741390306,0.32222227758290817,0.33888886120854594,0.35185185646524236,0.37222227758290816,0.3981480189732143,0.4166667081871811,0.42592599051339286,0.44444443060427297,0.4555554448341837,0.4629628706951531,0.46666670818718115]","[-0.8135276415669326,-0.8135276415669326,-0.8135276415669326,-0.8135276415669326,-0.8135276415669326,-0.8135276415669326,-0.8135276415669326,-0.8135276415669326,-0.8135276415669326,-0.8135276415669326,-0.8135276415669326,-0.8135276415669326,-0.8135276415669326,-0.8135276415669326,-0.8135276415669326,-0.8135276415669326,-0.8135276415669326,-0.8135276415669326,-0.8135276415669326,-0.8135276415669326,-0.8135276415669326,-0.8135276415669326,-0.8135276415669326,-0.8135276415669326,-0.8135276415669326,-0.8135276415669326,-0.8135276415669326,-0.8135276415669326,-0.8135276415669326,-0.8135276415669326,-0.8135276415669326,-0.8135276415669326,-0.8135276415669326,-0.8135276415669326,-0.8135276415669326,-0.8135276415669326,-0.8135276415669326,-0.8135276415669326,-0.8135276415669326,-0.8135276415669326,-0.8135276415669326,-0.8135276415669326,-0.8135276415669326,-0.8135276415669326,-0.6191752548758865,-0.6191752548758865,-0.6191752548758865,-0.6191752548758865,-0.6191752548758865,-0.6191752548758865,-0.6191752548758865,-0.6191752548758865,-0.6191752548758865,-0.6191752548758865,-0.6191752548758865,-0.6191752548758865,-0.6191752548758865,-0.6191752548758865,-0.6191752548758865,-0.6191752548758865,-0.6191752548758865,-0.6191752548758865,-0.6191752548758865,-0.6191752548758865,-0.6191752548758865,-0.6191752548758865,-0.6191752548758865,-0.6191752548758865,-0.6191752548758865,-0.6191752548758865,-0.6191752548758865,-0.6191752548758865,-0.6191752548758865,-0.6191752548758865,-0.6191752548758865,-0.6191752548758865,-0.6191752548758865,-0.6191752548758865,-0.6191752548758865,-0.6191752548758865,-0.6191752548758865,-0.6140268312278369,-0.6140268312278369,-0.6140268312278369,-0.6140268312278369,-0.6140268312278369,-0.6140268312278369,-0.6140268312278369,-0.6140268312278369,-0.6140268312278369,-0.6140268312278369,-0.6140268312278369,-0.6140268312278369,-0.6140268312278369,-0.6140268312278369,-0.6140268312278369,-0.6140268312278369,-0.6140268312278369,-0.6140268312278369,-0.6140268312278369,-0.6140268312278369,-0.6140268312278369,-0.6140268312278369,-0.6140268312278369,-0.6140268312278369,-0.6140268312278369,-0.6140268312278369,-0.6140268312278369,-0.6140268312278369,-0.6140268312278369,-0.6140268312278369,-0.6140268312278369,-0.6140268312278369,-0.6140268312278369,-0.6063041957557624,-0.5947203291223404,-0.5741266345301419,-0.5458103044658688,-0.5097715120789007,-0.4595744680851064,-0.42096137729942373,-0.36046748600953016,-0.29868666195700355,-0.2587864652593085,-0.1905699384973404,-0.1107697182513298,-0.027107920545212764,0.06041502174756206,0.14536383879100176,0.21358027897828014,0.2830838250775709,0.3577357082502216,0.4246651291001773,0.46327817659851506,0.5160493891289893,0.5623851153867464,0.5958497825243795,0.6138691787178635]","[1,1,0,0,0,0,0,0,0,0,0,0,0,0,0,0,0,0,0,0,0,0,0,0,0,0,0,0,0,0,0,0,0,0,0,0,0,0,0,0,0,0,0,0,1,1,1,1,1,0,0,0,0,0,0,0,0,0,0,0,0,0,0,0,0,0,0,0,0,0,0,0,0,0,0,0,0,0,0,0,0,1,1,1,1,1,1,1,1,1,1,1,1,1,1,1,1,1,1,1,1,1,1,1,1,1,1,1,1,1,1,1,1,1,1,1,1,1,1,1,1,1,1,1,1,1,1,1,1,1,1,1,1,1,1,1,1,1]","[0,0,0,0,0,0,0,0,0,0,0,0,0,0,0,0,0,0,0,0,0,0,0,0,0,0,0,0,0,0,0,0,0,0,0,0,0,0,0,0,0,0,0,0,0,0,0,0,0,0,0,0,0,0,0,0,0,0,0,0,0,0,0,0,0,0,0,0,0,0,0,0,0,0,0,0,0,0,0,0,0,0,0,0,0,0,0,0,0,0,0,0,0,0,0,0,0,0,0,0,0,0,0,0,0,0,0,0,0,0,0,0,0,0,0,0,0,0,0,0,0,0,0,0,0,0,0,0,0,0,0,0,0,0,0,0,0,0]","[0,0,0,0,0,0,0,0,0,0,0,0,0,0,0,0,0,0,0,0,0,0,0,0,0,0,0,0,0,0,0,0,0,0,0,0,0,0,0,0,0,0,0,0,0,0,0,0,0,0,0,0,0,0,0,0,0,0,0,0,0,0,0,0,0,0,0,0,0,0,0,0,0,0,0,0,0,0,0,0,0,0,0,0,0,0,0,0,0,0,0,0,0,0,0,0,0,0,0,0,0,0,0,0,0,0,0,0,0,0,0,0,0,0,0,0,0,0,0,0,0,0,0,0,0,0,0,0,0,0,0,0,0,0,0,0,0,0]","[0.00020000000037612153,0.0061000000005435595,0.022499999999126885,0.04960000000031073,0.06220000000030268,0.08289999999939823,0.10159999999993374,0.12149999999925853,0.14140000000043074,0.16170000000056461,0.18169999999915376,0.20089999999981956,0.22170000000002688,0.241899999999049,0.2620999999999185,0.29179999999905704,0.30489999999917927,0.32509999999999195,0.3447999999989406,0.37700000000040745,0.3878000000004249,0.40459999999981733,0.4320000000006985,0.44219999999953075,0.46079999999889765,0.4797999999991305,0.4974999999995191,0.516099999998886,0.5424000000002991,0.554599999999482,0.5727000000006228,0.6013000000002364,0.6129000000000815,0.6435000000001594,0.6541999999990651,0.6748000000006869,0.6947000000000116,0.7175999999999476,0.7338999999992666,0.7564000000002409,0.7836000000006322,0.7942000000002736,0.8140999999995984,0.8343999999997322,0.8716000000004271,0.8930999999992935,0.9521999999997206,0.9845000000005086,1.0069000000003143,1.0211999999992258,1.0488999999997475,1.062099999999191,1.080700000000462,1.1080999999994958,1.1296999999995307,1.149600000000646,1.173199999999298,1.2021000000003994,1.2081999999990956,1.2289000000000385,1.2482999999992899,1.2674000000006345,1.3042000000005203,1.322399999999135,1.344399999999922,1.3554000000003725,1.3855999999995845,1.3971000000001084,1.4179000000003725,1.4369000000006054,1.4578000000001339,1.477300000000497,1.507499999999709,1.5198000000000036,1.5388999999995576,1.5581999999994878,1.578999999999752,1.5972000000001572,1.6196000000000197,1.6494999999995343,1.6720000000005086,1.6893999999992957,1.7178000000003806,1.7399999999998101,1.7646000000003994,1.787000000000262,1.809900000000198,1.8331999999990956,1.855900000000446,1.8811000000005436,1.9032999999999731,1.9212999999999454,1.9478999999992084,1.9684999999990396,2,2.0178999999989173,2.0409999999992863,2.0655999999998755,2.0861000000004424,2.1026000000001943,2.1195000000006985,2.1553000000003806,2.1746000000003107,2.1854000000002713,2.2057999999997264,2.2268000000003667,2.2484000000004016,2.268200000000462,2.290499999999156,2.3215999999993073,2.3353000000006716,2.3613999999997475,2.3734000000004016,2.40259999999941,2.42189999999934,2.4462000000003457,2.4686999999994725,2.4910999999992782,2.516299999999319,2.5401999999994587,2.5643000000000313,2.5879000000004737,2.614599999998944,2.6268999999992957,2.6497999999992317,2.680899999999383,2.7019000000000233,2.725599999999787,2.7507000000005064,2.7757999999994354,2.8002999999989697,2.8245999999999185,2.849299999999829,2.8719000000001245,2.895500000000567,2.9166000000004715,2.9393999999992957,2.963200000000171]",3.0109,,3.0109,3.0109,"[0,-0.6]",,3.0109,0.9409,3.0109,"[0.5,0.7]",2.07,1.6471,0.4229,0.9409,Acepta,0,0,2,2,2,1,13,12,Train,Otro,5,3,25,10,,,,,,,,,,,,,,,,,,,,,,,,,,,
