Mouse_Instructions.x,Mouse_Instructions.y,Mouse_Instructions.leftButton,Mouse_Instructions.midButton,Mouse_Instructions.rightButton,Mouse_Instructions.clicked_name,instruccioness.thisRepN,instruccioness.thisTrialN,instruccioness.thisN,instruccioness.thisIndex,instruccioness.ran,Instrucciones,Texto,Cedula,date,expName,psychopyVersion,OS,frameRate,partition_mouse.x,partition_mouse.y,partition_mouse.leftButton,partition_mouse.midButton,partition_mouse.rightButton,partition_mouse.clicked_name,rolotro,tracking_2.x,tracking_2.y,tracking_2.leftButton,tracking_2.midButton,tracking_2.rightButton,tracking_2.time,tracking_2.stopped,tracking_2.startedR,tracking_2.stoppedR,start_region_2.stopped,start_region_2.pos,Question_2.started,Question_2.stopped,O1.startedR,O1.stoppedR,O1_choiceR.pos,Total_Time,Resp_Time,Mov_Time,Time_to_start,Choice,liftedFinger,Trainingg.thisRepN,Trainingg.thisTrialN,Trainingg.thisN,Trainingg.thisIndex,Trainingg.ran,Ud,Otro,Type,Rol_otro,Otro_transf,Multiplicador,Ud_manos,fichas_base,O0.startedR,O0.stoppedR,O0_choiceR.pos,fin_entrenamiento_mouse.x,fin_entrenamiento_mouse.y,fin_entrenamiento_mouse.leftButton,fin_entrenamiento_mouse.midButton,fin_entrenamiento_mouse.rightButton,fin_entrenamiento_mouse.clicked_name,mouse2.x,mouse2.y,mouse2.leftButton,mouse2.midButton,mouse2.rightButton,mouse2.clicked_name,trials.thisRepN,trials.thisTrialN,trials.thisN,trials.thisIndex,trials.ran,trials_2.thisRepN,trials_2.thisTrialN,trials_2.thisN,trials_2.thisIndex,trials_2.ran,TextoR,Pregunta
0.820370546,-0.801943775,1,0,0,next_button,0,0,0,0,1,1,"Imagine que usted y otra persona reciben cada uno 10 fichas. Cada una vale $3.000 pesos. 

Oprima la flecha para continuar.",17083182,2021-04-21_10h15.56.638,DictadorBinary,2021.1.4,Linux armv7l,60.07449237,,,,,,,,,,,,,,,,,,,,,,,,,,,,,,,,,,,,,,,,,,,,,,,,,,,,,,,,,,,,,,,,,,,,,
0.812962871,-0.798082544,1,0,0,next_button,0,1,1,1,1,2,"La otra persona le puede transferir a usted de 0 a 10 fichas. Esas fichas se triplican una vez se transfieren a usted.

Oprima la flecha para continuar",17083182,2021-04-21_10h15.56.638,DictadorBinary,2021.1.4,Linux armv7l,60.07449237,,,,,,,,,,,,,,,,,,,,,,,,,,,,,,,,,,,,,,,,,,,,,,,,,,,,,,,,,,,,,,,,,,,,,
0.812962871,-0.79293412,1,0,0,next_button,0,2,2,2,1,3,"Por ejemplo, si la otra persona le transfiere 2 fichas, se convierten en 6 fichas (2x3). Así, usted tendría en sus manos 16 fichas en total.

Oprima la flecha para continuar",17083182,2021-04-21_10h15.56.638,DictadorBinary,2021.1.4,Linux armv7l,60.07449237,,,,,,,,,,,,,,,,,,,,,,,,,,,,,,,,,,,,,,,,,,,,,,,,,,,,,,,,,,,,,,,,,,,,,
0.796296287,-0.818676065,1,0,0,next_button,0,3,3,3,1,4,"Su tarea es dividir las fichas que quedan en sus manos entre los dos.

Oprima la flecha para continuar",17083182,2021-04-21_10h15.56.638,DictadorBinary,2021.1.4,Linux armv7l,60.07449237,,,,,,,,,,,,,,,,,,,,,,,,,,,,,,,,,,,,,,,,,,,,,,,,,,,,,,,,,,,,,,,,,,,,,
0.816666584,-0.807092199,1,0,0,next_button,0,4,4,4,1,5,"Ninguno sabe el nombre del otro. 

Oprima la flecha para continuar.",17083182,2021-04-21_10h15.56.638,DictadorBinary,2021.1.4,Linux armv7l,60.07449237,,,,,,,,,,,,,,,,,,,,,,,,,,,,,,,,,,,,,,,,,,,,,,,,,,,,,,,,,,,,,,,,,,,,,
0.814814852,-0.813527642,1,0,0,next_button,0,5,5,5,1,6,"En cada turno, muevase al cuadro inferior para que aparezcan las cantidades. Desplacese a la cantidad que le daria al OTRO. 

Oprima la flecha para continuar.",17083182,2021-04-21_10h15.56.638,DictadorBinary,2021.1.4,Linux armv7l,60.07449237,,,,,,,,,,,,,,,,,,,,,,,,,,,,,,,,,,,,,,,,,,,,,,,,,,,,,,,,,,,,,,,,,,,,,
0.801851856,-0.813527642,1,0,0,next_button,0,6,6,6,1,7,"Si esta en su celular o una tableta, desplace su dedo por la pantalla mientras escoge.

Oprima la flecha para continuar.",17083182,2021-04-21_10h15.56.638,DictadorBinary,2021.1.4,Linux armv7l,60.07449237,,,,,,,,,,,,,,,,,,,,,,,,,,,,,,,,,,,,,,,,,,,,,,,,,,,,,,,,,,,,,,,,,,,,,
0.798148268,-0.804517987,1,0,0,next_button,0,7,7,7,1,8,"Empecemos con un entrenamiento corto para familiarizarse. 

Oprima la flecha para continuar.",17083182,2021-04-21_10h15.56.638,DictadorBinary,2021.1.4,Linux armv7l,60.07449237,,,,,,,,,,,,,,,,,,,,,,,,,,,,,,,,,,,,,,,,,,,,,,,,,,,,,,,,,,,,,,,,,,,,,
,,,,,,,,,,,,,17083182,2021-04-21_10h15.56.638,DictadorBinary,2021.1.4,Linux armv7l,60.07449237,0.811111139,-0.789072716,1,0,0,partition_image,Otro,"[0.8111111387914541,0.8111111387914541,0.8111111387914541,0.8111111387914541,0.8111111387914541,0.8111111387914541,0.8111111387914541,0.8111111387914541,0.8111111387914541,0.8111111387914541,0.8111111387914541,0.8111111387914541,0.8111111387914541,0.8111111387914541,0.8111111387914541,0.8111111387914541,0.8111111387914541,0.8111111387914541,0.8111111387914541,0.8111111387914541,0.8111111387914541,0.8111111387914541,0.8111111387914541,0.8111111387914541,0.8111111387914541,0.8111111387914541,0.8111111387914541,0.8111111387914541,0.8111111387914541,0.8111111387914541,0.8111111387914541,0.8111111387914541,0.8111111387914541,0.8111111387914541,0.8111111387914541,0.8111111387914541,0.8111111387914541,0.8111111387914541,0.8111111387914541,0.8111111387914541,0.8111111387914541,0.8111111387914541,0.8111111387914541,0.8111111387914541,0.8111111387914541,0.8111111387914541,0.8111111387914541,0.8111111387914541,0.8111111387914541,0.8111111387914541,0.8111111387914541,0.8111111387914541,0.8111111387914541,0.8111111387914541,0.8111111387914541,0.8111111387914541,0.8111111387914541,0.8111111387914541,0.8111111387914541,0.8111111387914541,0.8111111387914541,0.8111111387914541,0.8111111387914541,0.8111111387914541,0.8111111387914541,0.8111111387914541,0.8111111387914541,0.8111111387914541,0.8111111387914541,0.8111111387914541,0.8111111387914541,0.8111111387914541,0.8111111387914541,0.8111111387914541,0.8111111387914541,0.8111111387914541,0.8111111387914541,0.8111111387914541,0.8111111387914541,0.8111111387914541,0.8111111387914541,0.8111111387914541,0.8111111387914541,0.8111111387914541,0.8111111387914541,0.8111111387914541,0.8111111387914541,0.8111111387914541,0.8111111387914541,0.8111111387914541,0.8111111387914541,0.8111111387914541,0.8111111387914541,0.8111111387914541,0.8111111387914541,0.8111111387914541,0.8111111387914541,0.8111111387914541,0.8111111387914541,0.8111111387914541,0.8111111387914541,0.8111111387914541,0.8111111387914541,0.8111111387914541,0.8111111387914541,0.8111111387914541,0.8111111387914541,0.8111111387914541,0.8111111387914541,0.8111111387914541,0.8111111387914541,0.8111111387914541,0.8111111387914541,0.8111111387914541,0.8111111387914541,0.8111111387914541,0.8111111387914541,0.8111111387914541,0.8111111387914541,0.8111111387914541,0.8111111387914541,0.8111111387914541,0.8111111387914541,0.8111111387914541,0.8111111387914541,0.8111111387914541,0.8111111387914541,0.8111111387914541,0.8111111387914541,0.8111111387914541,0.8111111387914541,0.8111111387914541,0.8111111387914541,0.8111111387914541,0.8111111387914541,0.8111111387914541,0.8111111387914541,0.8111111387914541,0.8111111387914541,0.8111111387914541,0.8111111387914541,0.8111111387914541,0.8111111387914541,0.8111111387914541,0.8111111387914541,0.8111111387914541,0.8111111387914541,0.8111111387914541,0.8111111387914541,0.8111111387914541,0.8111111387914541,0.8111111387914541,0.8111111387914541,0.8111111387914541,0.8111111387914541,0.8111111387914541,0.8111111387914541,0.8111111387914541,0.8111111387914541,0.8111111387914541,0.8111111387914541,0.8111111387914541,0.8111111387914541,0.8111111387914541,0.8111111387914541,0.8111111387914541,0.8111111387914541,0.8111111387914541,0.8111111387914541,0.8111111387914541,0.8111111387914541,0.8111111387914541,0.8111111387914541,0.8111111387914541,0.8111111387914541,0.8111111387914541,0.8111111387914541,0.8111111387914541,0.8111111387914541,0.8111111387914541,0.8111111387914541,0.8111111387914541,0.8111111387914541,0.8111111387914541,0.8111111387914541,0.8111111387914541,0.8111111387914541,0.8111111387914541,0.8111111387914541,0.8111111387914541,0.8111111387914541,0.8111111387914541,0.8111111387914541,0.8111111387914541,0.8111111387914541,0.8111111387914541,0.8111111387914541,0.8111111387914541,0.8111111387914541,0.8111111387914541,0.8111111387914541,0.8111111387914541,0.8111111387914541,0.8111111387914541,0.8111111387914541,0.8111111387914541,0.8111111387914541,0.8111111387914541,0.8111111387914541,0.8111111387914541,0.8111111387914541,0.8111111387914541,0.8111111387914541,0.8111111387914541,0.8111111387914541,0.8111111387914541,0.8111111387914541,0.8111111387914541,0.8111111387914541,0.8111111387914541,0.8111111387914541,0.8111111387914541,0.8111111387914541,0.8111111387914541,0.8111111387914541,0.8111111387914541,0.8111111387914541,0.8111111387914541,0.8111111387914541,0.8111111387914541,0.8111111387914541,0.8111111387914541,0.8111111387914541,0.8111111387914541,0.8111111387914541,0.8111111387914541,0.8111111387914541,0.8111111387914541,0.8111111387914541,0.8111111387914541,0.8111111387914541,0.8111111387914541,0.8111111387914541,0.8111111387914541,0.8111111387914541,0.8111111387914541,0.8111111387914541,0.8111111387914541,0.8111111387914541,0.8111111387914541,0.8111111387914541,0.8111111387914541,0.8111111387914541,0.8111111387914541,0.8111111387914541,0.8111111387914541,0.8111111387914541,0.8111111387914541,0.8111111387914541,0.8111111387914541,0.8111111387914541,0.8111111387914541,0.8111111387914541,0.8111111387914541,0.8111111387914541,0.8111111387914541,0.8111111387914541,0.8111111387914541,0.8111111387914541,0.8111111387914541,0.8111111387914541,0.8111111387914541,0.8111111387914541,0.8111111387914541,0.8111111387914541,0.8111111387914541,0.8111111387914541,0.8111111387914541,0.8111111387914541,0.8111111387914541,0.8111111387914541,0.8111111387914541,0.8111111387914541,0.8111111387914541,0.8111111387914541,0.8111111387914541,0.8111111387914541,0.8111111387914541,0.8111111387914541,0.8111111387914541,0.8111111387914541,0.8111111387914541,0.8111111387914541,0.8111111387914541,0.8111111387914541,0.8111111387914541,0.8111111387914541,0.8111111387914541,0.8111111387914541,0.8111111387914541,0.8111111387914541,0.8111111387914541,0.8111111387914541,0.8111111387914541,0.8111111387914541,0.8111111387914541,0.8111111387914541,0.8111111387914541,0.8111111387914541,0.8111111387914541,0.8111111387914541,0.8111111387914541,0.8111111387914541,0.8111111387914541,0.8111111387914541,0.8111111387914541,0.8111111387914541,0.8111111387914541,0.8111111387914541,0.8111111387914541,0.8111111387914541,0.8111111387914541,0.8111111387914541,0.8111111387914541,0.8111111387914541,0.8111111387914541,0.8111111387914541,0.8111111387914541,0.8111111387914541,0.8111111387914541,0.8111111387914541,0.8111111387914541,0.8111111387914541,0.8111111387914541,0.8111111387914541,0.8111111387914541,0.8111111387914541,0.8111111387914541,0.8111111387914541,0.8111111387914541,0.8111111387914541,0.8111111387914541,0.8111111387914541,0.8111111387914541,0.8111111387914541,0.8111111387914541,0.8111111387914541,0.8111111387914541,0.8111111387914541,0.8111111387914541,0.8111111387914541,0.8111111387914541,0.8111111387914541,0.8111111387914541,0.8111111387914541,0.8111111387914541,0.8111111387914541,0.8111111387914541,0.8111111387914541,0.8111111387914541,0.8111111387914541,0.8111111387914541,0.8111111387914541,0.8111111387914541,0.8111111387914541,0.8111111387914541,0.8111111387914541,0.8111111387914541,0.8111111387914541,0.8111111387914541,0.8111111387914541,0.8111111387914541,0.8111111387914541,0.8111111387914541,0.8111111387914541,0.8111111387914541,0.8111111387914541,0.8111111387914541,0.8111111387914541,0.8111111387914541,0.8111111387914541,0.8111111387914541,0.8111111387914541,0.8111111387914541,0.8111111387914541,0.8111111387914541,0.8111111387914541,0.8111111387914541,0.8111111387914541,0.8111111387914541,0.8111111387914541,0.8111111387914541,0.8111111387914541,0.8111111387914541,0.8111111387914541,0.8111111387914541,0.8111111387914541,0.8111111387914541,0.8111111387914541,0.8111111387914541,0.8111111387914541,0.8111111387914541,0.8111111387914541,0.8111111387914541,0.8111111387914541,0.8111111387914541,0.8111111387914541,0.8111111387914541,0.8111111387914541,0.8111111387914541,0.8111111387914541,0.8111111387914541,0.8111111387914541,0.8111111387914541,0.8111111387914541,0.8111111387914541,0.8111111387914541,0.8111111387914541,0.8111111387914541,0.8111111387914541,0.8111111387914541,0.8111111387914541,0.8111111387914541,0.8111111387914541,0.8111111387914541,-0.014814851721938775,-0.014814851721938775,-0.014814851721938775,-0.014814851721938775,-0.014814851721938775,-0.014814851721938775,-0.014814851721938775,-0.014814851721938775,-0.014814851721938775,-0.014814851721938775,-0.014814851721938775,-0.014814851721938775,-0.014814851721938775,-0.014814851721938775,-0.014814851721938775,-0.014814851721938775,-0.014814851721938775,-0.014814851721938775,-0.014814851721938775,-0.014814851721938775,-0.014814851721938775,-0.014814851721938775,-0.014814851721938775,-0.014814851721938775,-0.014814851721938775,-0.014814851721938775,-0.014814851721938775,-0.014814851721938775,-0.014814851721938775,-0.014814851721938775,-0.014814851721938775,-0.014814851721938775,-0.014814851721938775,-0.014814851721938775,-0.014814851721938775,-0.014814851721938775,-0.014814851721938775,-0.014814851721938775,-0.014814851721938775,-0.014814851721938775,-0.014814851721938775,-0.014814851721938775,-0.014814851721938775,-0.014814851721938775,-0.014814851721938775,-0.014814851721938775,-0.014814851721938775,-0.014814851721938775,-0.014814851721938775,-0.014814851721938775,-0.014814851721938775,-0.014814851721938775,-0.014814851721938775,-0.014814851721938775,-0.014814851721938775,-0.014814851721938775,-0.014814851721938775,-0.014814851721938775,-0.014814851721938775,-0.014814851721938775,-0.014814851721938775,-0.014814851721938775,-0.014814851721938775,-0.014814851721938775,-0.014814851721938775,-0.014814851721938775,-0.014814851721938775,-0.014814851721938775,-0.014814851721938775,-0.014814851721938775,-0.014814851721938775,-0.014814851721938775,-0.014814851721938775,-0.014814851721938775,-0.014814851721938775,-0.014814851721938775,-0.014814851721938775,-0.014814851721938775,-0.014814851721938775,-0.014814851721938775,-0.014814851721938775,-0.014814851721938775,-0.014814851721938775,-0.014814851721938775,-0.014814851721938775,-0.014814851721938775,-0.014814851721938775,-0.014814851721938775,-0.014814851721938775,-0.014814851721938775,-0.014814851721938775,-0.014814851721938775,-0.014814851721938775,-0.014814851721938775,-0.014814851721938775,-0.014814851721938775,-0.014814851721938775,-0.014814851721938775,-0.014814851721938775,-0.014814851721938775,-0.014814851721938775,-0.014814851721938775,-0.014814851721938775,-0.014814851721938775,-0.014814851721938775,-0.014814851721938775,-0.014814851721938775,-0.014814851721938775,-0.014814851721938775,-0.014814851721938775,-0.014814851721938775,-0.014814851721938775,-0.014814851721938775,-0.014814851721938775,-0.014814851721938775,-0.014814851721938775,-0.014814851721938775,-0.014814851721938775,-0.014814851721938775,-0.014814851721938775,-0.014814851721938775,-0.014814851721938775,-0.014814851721938775,-0.014814851721938775,-0.014814851721938775,-0.014814851721938775,-0.014814851721938775,-0.014814851721938775,-0.014814851721938775,-0.014814851721938775,-0.014814851721938775,-0.014814851721938775,-0.014814851721938775,-0.014814851721938775,-0.014814851721938775,-0.014814851721938775,-0.014814851721938775,-0.014814851721938775,-0.014814851721938775,-0.014814851721938775,-0.014814851721938775,-0.014814851721938775,-0.014814851721938775,-0.014814851721938775,-0.014814851721938775,-0.014814851721938775,-0.014814851721938775,-0.014814851721938775,-0.014814851721938775,-0.014814851721938775,-0.014814851721938775,-0.014814851721938775,-0.014814851721938775,-0.014814851721938775,-0.014814851721938775,-0.014814851721938775,-0.014814851721938775,-0.014814851721938775,-0.014814851721938775,-0.014814851721938775,-0.014814851721938775,-0.014814851721938775,-0.014814851721938775,-0.014814851721938775,-0.014814851721938775,-0.014814851721938775,-0.014814851721938775,-0.014814851721938775,-0.014814851721938775,-0.014814851721938775,-0.014814851721938775,-0.014814851721938775,-0.014814851721938775,-0.014814851721938775,-0.014814851721938775,-0.014814851721938775,-0.014814851721938775,-0.014814851721938775,-0.014814851721938775,-0.014814851721938775,-0.014814851721938775,-0.014814851721938775,-0.014814851721938775,-0.014814851721938775,-0.014814851721938775,-0.014814851721938775,-0.014814851721938775,-0.014814851721938775,-0.014814851721938775,-0.014814851721938775,-0.014814851721938775,-0.014814851721938775,-0.014814851721938775,-0.014814851721938775,-0.014814851721938775,-0.014814851721938775,-0.014814851721938775,-0.014814851721938775,-0.014814851721938775,-0.014814851721938775,-0.014814851721938775,-0.014814851721938775,-0.014814851721938775,-0.014814851721938775,-0.014814851721938775,-0.014814851721938775,-0.014814851721938775,-0.014814851721938775,-0.014814851721938775,-0.014814851721938775,-0.014814851721938775,-0.014814851721938775,-0.014814851721938775,-0.014814851721938775,-0.014814851721938775,-0.014814851721938775,-0.014814851721938775,-0.014814851721938775,-0.014814851721938775,-0.014814851721938775,-0.014814851721938775,-0.014814851721938775,-0.014814851721938775,-0.014814851721938775,-0.014814851721938775,-0.014814851721938775,-0.014814851721938775,-0.014814851721938775,-0.014814851721938775,-0.014814851721938775,-0.014814851721938775,-0.014814851721938775,-0.014814851721938775,-0.014814851721938775,-0.014814851721938775,-0.014814851721938775,-0.014814851721938775,-0.014814851721938775,-0.014814851721938775,-0.014814851721938775,-0.014814851721938775,-0.014814851721938775,-0.014814851721938775,-0.014814851721938775,-0.014814851721938775,-0.014814851721938775,-0.014814851721938775,-0.014814851721938775,-0.014814851721938775,-0.014814851721938775,-0.014814851721938775,-0.014814851721938775,-0.014814851721938775,-0.014814851721938775,-0.014814851721938775,-0.014814851721938775,-0.014814851721938775,-0.014814851721938775,-0.014814851721938775,-0.014814851721938775,-0.014814851721938775,-0.014814851721938775,-0.014814851721938775,-0.014814851721938775,-0.014814851721938775,-0.014814851721938775,-0.014814851721938775,-0.014814851721938775,-0.014814851721938775,-0.014814851721938775,-0.014814851721938775,-0.014814851721938775,-0.014814851721938775,-0.014814851721938775,-0.014814851721938775,-0.014814851721938775,-0.014814851721938775,-0.014814851721938775,-0.014814851721938775,-0.014814851721938775,-0.014814851721938775,-0.014814851721938775,-0.014814851721938775,-0.014814851721938775,-0.014814851721938775,-0.014814851721938775,-0.014814851721938775,-0.014814851721938775,-0.014814851721938775,-0.014814851721938775,-0.014814851721938775,-0.014814851721938775,-0.014814851721938775,-0.014814851721938775,-0.014814851721938775,-0.014814851721938775,-0.014814851721938775,-0.014814851721938775,-0.014814851721938775,-0.014814851721938775,-0.014814851721938775,-0.014814851721938775,-0.014814851721938775,-0.014814851721938775,-0.014814851721938775,-0.014814851721938775,-0.014814851721938775,-0.014814851721938775,-0.014814851721938775,-0.014814851721938775,-0.014814851721938775,-0.014814851721938775,-0.014814851721938775,-0.014814851721938775,-0.014814851721938775,-0.014814851721938775,-0.014814851721938775,-0.014814851721938775,-0.014814851721938775,-0.014814851721938775,-0.014814851721938775,-0.014814851721938775,-0.014814851721938775,-0.014814851721938775,-0.014814851721938775,-0.014814851721938775,-0.014814851721938775,-0.014814851721938775,-0.014814851721938775,-0.014814851721938775,-0.014814851721938775,-0.014814851721938775,-0.014814851721938775,-0.014814851721938775,-0.014814851721938775,-0.014814851721938775,-0.014814851721938775,-0.014814851721938775,-0.014814851721938775,-0.014814851721938775,-0.014814851721938775,-0.014814851721938775,-0.014814851721938775,-0.014814851721938775,-0.014814851721938775,-0.014814851721938775,-0.014814851721938775,-0.014814851721938775,-0.014814851721938775,-0.014814851721938775,-0.014814851721938775,-0.014814851721938775,-0.014814851721938775,-0.014814851721938775,-0.014814851721938775,-0.014814851721938775,-0.014814851721938775,-0.014814851721938775,-0.014814851721938775,-0.014814851721938775,-0.014814851721938775,-0.014814851721938775,-0.014814851721938775,-0.014814851721938775,-0.014814851721938775,-0.014814851721938775,-0.014814851721938775,-0.014814851721938775,-0.014814851721938775,-0.014814851721938775,-0.014814851721938775,-0.014814851721938775,-0.014814851721938775,-0.014814851721938775,-0.014814851721938775,-0.014814851721938775,-0.014814851721938775,-0.014814851721938775,-0.014814851721938775,-0.014814851721938775,-0.014814851721938775,-0.014814851721938775,-0.014814851721938775,-0.014814851721938775,-0.014814851721938775,-0.014814851721938775,-0.014814851721938775,-0.014814851721938775,-0.014814851721938775,-0.014814851721938775,-0.014814851721938775,-0.014814851721938775,-0.014814851721938775,-0.014814851721938775,-0.014814851721938775,-0.014814851721938775,-0.014814851721938775,-0.014814851721938775,-0.014814851721938775,-0.014814851721938775,-0.014814851721938775,-0.014814851721938775,-0.014814851721938775,-0.014814851721938775,-0.014814851721938775,-0.014814851721938775,-0.014814851721938775,-0.014814851721938775,-0.014814851721938775,-0.014814851721938775,-0.014814851721938775,-0.014814851721938775,-0.014814851721938775,-0.014814851721938775,-0.014814851721938775,-0.014814851721938775,-0.014814851721938775,-0.014814851721938775,-0.014814851721938775,-0.014814851721938775,-0.014814851721938775,-0.014814851721938775,-0.014814851721938775,-0.014814851721938775,-0.014814851721938775,-0.014814851721938775,-0.014814851721938775,-0.014814851721938775,-0.014814851721938775,-0.007407425860969387,-0.007407425860969387,-0.007407425860969387,-0.007407425860969387,-0.007407425860969387,-0.007407425860969387,-0.0037037129304846937,-0.0037037129304846937,-0.0037037129304846937,-0.0037037129304846937,-0.0037037129304846937,-0.0018518564652423468,-0.0018518564652423468,-0.0018518564652423468,-6.228077168367348e-8,-6.228077168367348e-8,0.0018518564652423468,0.00370365064971301,0.007407363580197704,0.007407363580197704,0.011111076510682398,0.012962995256696428,0.012962995256696428,0.014814789441167093,0.018518502371651785,0.02222221530213648,0.025925928232621173,0.027777722417091838,0.029629641163105867,0.03148143534757653,0.033333291812818876,0.033333291812818876,0.033333291812818876,0.033333291812818876,0.033333291812818876,0.029629641163105867,0.027777722417091838,0.027777722417091838,0.027777722417091838,0.024074009486607144,0.02222221530213648,0.02222221530213648,0.02222221530213648,0.035185148278061226,0.05,0.06111113879145408,0.08333329181281887,0.10185185646524235,0.11666658362563775,0.13703700474330358,0.15370371293048468,0.18333329181281888,0.2037037129304847,0.2388888612085459,0.26481485172193875,0.2814814353475765,0.30555556939572703,0.31666658362563777,0.3333332918128189,0.35,0.37222227758290816,0.3925925741390306,0.4166667081871811,0.42777772241709183]","[-0.7890727158133866,-0.7890727158133866,-0.7890727158133866,-0.7890727158133866,-0.7890727158133866,-0.7890727158133866,-0.7890727158133866,-0.7890727158133866,-0.7890727158133866,-0.7890727158133866,-0.7890727158133866,-0.7890727158133866,-0.7890727158133866,-0.7890727158133866,-0.7890727158133866,-0.7890727158133866,-0.7890727158133866,-0.7890727158133866,-0.7890727158133866,-0.7890727158133866,-0.7890727158133866,-0.7890727158133866,-0.7890727158133866,-0.7890727158133866,-0.7890727158133866,-0.7890727158133866,-0.7890727158133866,-0.7890727158133866,-0.7890727158133866,-0.7890727158133866,-0.7890727158133866,-0.7890727158133866,-0.7890727158133866,-0.7890727158133866,-0.7890727158133866,-0.7890727158133866,-0.7890727158133866,-0.7890727158133866,-0.7890727158133866,-0.7890727158133866,-0.7890727158133866,-0.7890727158133866,-0.7890727158133866,-0.7890727158133866,-0.7890727158133866,-0.7890727158133866,-0.7890727158133866,-0.7890727158133866,-0.7890727158133866,-0.7890727158133866,-0.7890727158133866,-0.7890727158133866,-0.7890727158133866,-0.7890727158133866,-0.7890727158133866,-0.7890727158133866,-0.7890727158133866,-0.7890727158133866,-0.7890727158133866,-0.7890727158133866,-0.7890727158133866,-0.7890727158133866,-0.7890727158133866,-0.7890727158133866,-0.7890727158133866,-0.7890727158133866,-0.7890727158133866,-0.7890727158133866,-0.7890727158133866,-0.7890727158133866,-0.7890727158133866,-0.7890727158133866,-0.7890727158133866,-0.7890727158133866,-0.7890727158133866,-0.7890727158133866,-0.7890727158133866,-0.7890727158133866,-0.7890727158133866,-0.7890727158133866,-0.7890727158133866,-0.7890727158133866,-0.7890727158133866,-0.7890727158133866,-0.7890727158133866,-0.7890727158133866,-0.7890727158133866,-0.7890727158133866,-0.7890727158133866,-0.7890727158133866,-0.7890727158133866,-0.7890727158133866,-0.7890727158133866,-0.7890727158133866,-0.7890727158133866,-0.7890727158133866,-0.7890727158133866,-0.7890727158133866,-0.7890727158133866,-0.7890727158133866,-0.7890727158133866,-0.7890727158133866,-0.7890727158133866,-0.7890727158133866,-0.7890727158133866,-0.7890727158133866,-0.7890727158133866,-0.7890727158133866,-0.7890727158133866,-0.7890727158133866,-0.7890727158133866,-0.7890727158133866,-0.7890727158133866,-0.7890727158133866,-0.7890727158133866,-0.7890727158133866,-0.7890727158133866,-0.7890727158133866,-0.7890727158133866,-0.7890727158133866,-0.7890727158133866,-0.7890727158133866,-0.7890727158133866,-0.7890727158133866,-0.7890727158133866,-0.7890727158133866,-0.7890727158133866,-0.7890727158133866,-0.7890727158133866,-0.7890727158133866,-0.7890727158133866,-0.7890727158133866,-0.7890727158133866,-0.7890727158133866,-0.7890727158133866,-0.7890727158133866,-0.7890727158133866,-0.7890727158133866,-0.7890727158133866,-0.7890727158133866,-0.7890727158133866,-0.7890727158133866,-0.7890727158133866,-0.7890727158133866,-0.7890727158133866,-0.7890727158133866,-0.7890727158133866,-0.7890727158133866,-0.7890727158133866,-0.7890727158133866,-0.7890727158133866,-0.7890727158133866,-0.7890727158133866,-0.7890727158133866,-0.7890727158133866,-0.7890727158133866,-0.7890727158133866,-0.7890727158133866,-0.7890727158133866,-0.7890727158133866,-0.7890727158133866,-0.7890727158133866,-0.7890727158133866,-0.7890727158133866,-0.7890727158133866,-0.7890727158133866,-0.7890727158133866,-0.7890727158133866,-0.7890727158133866,-0.7890727158133866,-0.7890727158133866,-0.7890727158133866,-0.7890727158133866,-0.7890727158133866,-0.7890727158133866,-0.7890727158133866,-0.7890727158133866,-0.7890727158133866,-0.7890727158133866,-0.7890727158133866,-0.7890727158133866,-0.7890727158133866,-0.7890727158133866,-0.7890727158133866,-0.7890727158133866,-0.7890727158133866,-0.7890727158133866,-0.7890727158133866,-0.7890727158133866,-0.7890727158133866,-0.7890727158133866,-0.7890727158133866,-0.7890727158133866,-0.7890727158133866,-0.7890727158133866,-0.7890727158133866,-0.7890727158133866,-0.7890727158133866,-0.7890727158133866,-0.7890727158133866,-0.7890727158133866,-0.7890727158133866,-0.7890727158133866,-0.7890727158133866,-0.7890727158133866,-0.7890727158133866,-0.7890727158133866,-0.7890727158133866,-0.7890727158133866,-0.7890727158133866,-0.7890727158133866,-0.7890727158133866,-0.7890727158133866,-0.7890727158133866,-0.7890727158133866,-0.7890727158133866,-0.7890727158133866,-0.7890727158133866,-0.7890727158133866,-0.7890727158133866,-0.7890727158133866,-0.7890727158133866,-0.7890727158133866,-0.7890727158133866,-0.7890727158133866,-0.7890727158133866,-0.7890727158133866,-0.7890727158133866,-0.7890727158133866,-0.7890727158133866,-0.7890727158133866,-0.7890727158133866,-0.7890727158133866,-0.7890727158133866,-0.7890727158133866,-0.7890727158133866,-0.7890727158133866,-0.7890727158133866,-0.7890727158133866,-0.7890727158133866,-0.7890727158133866,-0.7890727158133866,-0.7890727158133866,-0.7890727158133866,-0.7890727158133866,-0.7890727158133866,-0.7890727158133866,-0.7890727158133866,-0.7890727158133866,-0.7890727158133866,-0.7890727158133866,-0.7890727158133866,-0.7890727158133866,-0.7890727158133866,-0.7890727158133866,-0.7890727158133866,-0.7890727158133866,-0.7890727158133866,-0.7890727158133866,-0.7890727158133866,-0.7890727158133866,-0.7890727158133866,-0.7890727158133866,-0.7890727158133866,-0.7890727158133866,-0.7890727158133866,-0.7890727158133866,-0.7890727158133866,-0.7890727158133866,-0.7890727158133866,-0.7890727158133866,-0.7890727158133866,-0.7890727158133866,-0.7890727158133866,-0.7890727158133866,-0.7890727158133866,-0.7890727158133866,-0.7890727158133866,-0.7890727158133866,-0.7890727158133866,-0.7890727158133866,-0.7890727158133866,-0.7890727158133866,-0.7890727158133866,-0.7890727158133866,-0.7890727158133866,-0.7890727158133866,-0.7890727158133866,-0.7890727158133866,-0.7890727158133866,-0.7890727158133866,-0.7890727158133866,-0.7890727158133866,-0.7890727158133866,-0.7890727158133866,-0.7890727158133866,-0.7890727158133866,-0.7890727158133866,-0.7890727158133866,-0.7890727158133866,-0.7890727158133866,-0.7890727158133866,-0.7890727158133866,-0.7890727158133866,-0.7890727158133866,-0.7890727158133866,-0.7890727158133866,-0.7890727158133866,-0.7890727158133866,-0.7890727158133866,-0.7890727158133866,-0.7890727158133866,-0.7890727158133866,-0.7890727158133866,-0.7890727158133866,-0.7890727158133866,-0.7890727158133866,-0.7890727158133866,-0.7890727158133866,-0.7890727158133866,-0.7890727158133866,-0.7890727158133866,-0.7890727158133866,-0.7890727158133866,-0.7890727158133866,-0.7890727158133866,-0.7890727158133866,-0.7890727158133866,-0.7890727158133866,-0.7890727158133866,-0.7890727158133866,-0.7890727158133866,-0.7890727158133866,-0.7890727158133866,-0.7890727158133866,-0.7890727158133866,-0.7890727158133866,-0.7890727158133866,-0.7890727158133866,-0.7890727158133866,-0.7890727158133866,-0.7890727158133866,-0.7890727158133866,-0.7890727158133866,-0.7890727158133866,-0.7890727158133866,-0.7890727158133866,-0.7890727158133866,-0.7890727158133866,-0.7890727158133866,-0.7890727158133866,-0.7890727158133866,-0.7890727158133866,-0.7890727158133866,-0.7890727158133866,-0.7890727158133866,-0.7890727158133866,-0.7890727158133866,-0.7890727158133866,-0.7890727158133866,-0.7890727158133866,-0.7890727158133866,-0.7890727158133866,-0.7890727158133866,-0.7890727158133866,-0.7890727158133866,-0.7890727158133866,-0.7890727158133866,-0.7890727158133866,-0.7890727158133866,-0.7890727158133866,-0.7890727158133866,-0.7890727158133866,-0.7890727158133866,-0.7890727158133866,-0.7890727158133866,-0.7890727158133866,-0.7890727158133866,-0.7890727158133866,-0.7890727158133866,-0.7890727158133866,-0.7890727158133866,-0.7890727158133866,-0.7890727158133866,-0.7890727158133866,-0.7890727158133866,-0.7890727158133866,-0.7890727158133866,-0.7890727158133866,-0.7890727158133866,-0.7890727158133866,-0.7890727158133866,-0.7890727158133866,-0.7890727158133866,-0.7890727158133866,-0.7890727158133866,-0.7890727158133866,-0.7890727158133866,-0.7890727158133866,-0.7890727158133866,-0.7890727158133866,-0.7890727158133866,-0.7890727158133866,-0.7890727158133866,-0.7890727158133866,-0.7890727158133866,-0.7890727158133866,-0.7890727158133866,-0.7890727158133866,-0.7890727158133866,-0.7890727158133866,-0.7890727158133866,-0.7890727158133866,-0.7890727158133866,-0.7890727158133866,-0.7890727158133866,-0.7890727158133866,-0.7890727158133866,-0.7890727158133866,-0.7890727158133866,-0.7890727158133866,-0.7890727158133866,-0.7890727158133866,-0.7890727158133866,-0.7890727158133866,-0.558681363585993,-0.558681363585993,-0.558681363585993,-0.558681363585993,-0.558681363585993,-0.558681363585993,-0.558681363585993,-0.558681363585993,-0.558681363585993,-0.558681363585993,-0.558681363585993,-0.5702652302194149,-0.5728394420434397,-0.5741266345301419,-0.5754136538674646,-0.5767008463541666,-0.5779878656914894,-0.5792750581781915,-0.5818490968528369,-0.5818490968528369,-0.5818490968528369,-0.5818490968528369,-0.583136289339539,-0.583136289339539,-0.5844234818262412,-0.5844234818262412,-0.5844234818262412,-0.5844234818262412,-0.5844234818262412,-0.5844234818262412,-0.5844234818262412,-0.5844234818262412,-0.5857105011635638,-0.5857105011635638,-0.5857105011635638,-0.5857105011635638,-0.5869975205008865,-0.5869975205008865,-0.5869975205008865,-0.5869975205008865,-0.5869975205008865,-0.5869975205008865,-0.5869975205008865,-0.5869975205008865,-0.5869975205008865,-0.5882847129875887,-0.5882847129875887,-0.5882847129875887,-0.5882847129875887,-0.5882847129875887,-0.5895719054742907,-0.5895719054742907,-0.5895719054742907,-0.5895719054742907,-0.5908589248116135,-0.5908589248116135,-0.5908589248116135,-0.5908589248116135,-0.5908589248116135,-0.5908589248116135,-0.5921459441489362,-0.5921459441489362,-0.5921459441489362,-0.5921459441489362,-0.5921459441489362,-0.5921459441489362,-0.5921459441489362,-0.5921459441489362,-0.5921459441489362,-0.5921459441489362,-0.5921459441489362,-0.5921459441489362,-0.5934331366356383,-0.5934331366356383,-0.5934331366356383,-0.5947203291223404,-0.5947203291223404,-0.5947203291223404,-0.5947203291223404,-0.5947203291223404,-0.5947203291223404,-0.5947203291223404,-0.5947203291223404,-0.5947203291223404,-0.5960073484596631,-0.5960073484596631,-0.5960073484596631,-0.5960073484596631,-0.5960073484596631,-0.5960073484596631,-0.5960073484596631,-0.5960073484596631,-0.5960073484596631,-0.5960073484596631,-0.5960073484596631,-0.5960073484596631,-0.5960073484596631,-0.5960073484596631,-0.5960073484596631,-0.5960073484596631,-0.5972943677969859,-0.5985815602836879,-0.5985815602836879,-0.5985815602836879,-0.5985815602836879,-0.5985815602836879,-0.5985815602836879,-0.5985815602836879,-0.5985815602836879,-0.5985815602836879,-0.5985815602836879,-0.5985815602836879,-0.5985815602836879,-0.5985815602836879,-0.5985815602836879,-0.5985815602836879,-0.5985815602836879,-0.5985815602836879,-0.5985815602836879,-0.5985815602836879,-0.5985815602836879,-0.5985815602836879,-0.5985815602836879,-0.5985815602836879,-0.5985815602836879,-0.5985815602836879,-0.5985815602836879,-0.5985815602836879,-0.5985815602836879,-0.5985815602836879,-0.5985815602836879,-0.5985815602836879,-0.5985815602836879,-0.5985815602836879,-0.5985815602836879,-0.5985815602836879,-0.5985815602836879,-0.5985815602836879,-0.5985815602836879,-0.5985815602836879,-0.5985815602836879,-0.5985815602836879,-0.5985815602836879,-0.5985815602836879,-0.5985815602836879,-0.5985815602836879,-0.5985815602836879,-0.5985815602836879,-0.5985815602836879,-0.5985815602836879,-0.5985815602836879,-0.5985815602836879,-0.5985815602836879,-0.5985815602836879,-0.5985815602836879,-0.5985815602836879,-0.5985815602836879,-0.5985815602836879,-0.5985815602836879,-0.5985815602836879,-0.5985815602836879,-0.5985815602836879,-0.5985815602836879,-0.5985815602836879,-0.5985815602836879,-0.5985815602836879,-0.5985815602836879,-0.5985815602836879,-0.5985815602836879,-0.5985815602836879,-0.5985815602836879,-0.5985815602836879,-0.5985815602836879,-0.5985815602836879,-0.5985815602836879,-0.5985815602836879,-0.5985815602836879,-0.5985815602836879,-0.5985815602836879,-0.5985815602836879,-0.5985815602836879,-0.5985815602836879,-0.5985815602836879,-0.5985815602836879,-0.5985815602836879,-0.5985815602836879,-0.5985815602836879,-0.5985815602836879,-0.5985815602836879,-0.5985815602836879,-0.5985815602836879,-0.5985815602836879,-0.5985815602836879,-0.5985815602836879,-0.5985815602836879,-0.5985815602836879,-0.5985815602836879,-0.5985815602836879,-0.5985815602836879,-0.5985815602836879,-0.5985815602836879,-0.5985815602836879,-0.5985815602836879,-0.5985815602836879,-0.5985815602836879,-0.5985815602836879,-0.5985815602836879,-0.5985815602836879,-0.5985815602836879,-0.5985815602836879,-0.5985815602836879,-0.5985815602836879,-0.5985815602836879,-0.5985815602836879,-0.5985815602836879,-0.5985815602836879,-0.5985815602836879,-0.5985815602836879,-0.5985815602836879,-0.5985815602836879,-0.5985815602836879,-0.5985815602836879,-0.5985815602836879,-0.5985815602836879,-0.5985815602836879,-0.5985815602836879,-0.5985815602836879,-0.5985815602836879,-0.5985815602836879,-0.5985815602836879,-0.5985815602836879,-0.5985815602836879,-0.5985815602836879,-0.5985815602836879,-0.5985815602836879,-0.5985815602836879,-0.5985815602836879,-0.5985815602836879,-0.5985815602836879,-0.5985815602836879,-0.5985815602836879,-0.5985815602836879,-0.5985815602836879,-0.5985815602836879,-0.5985815602836879,-0.5985815602836879,-0.5985815602836879,-0.5985815602836879,-0.5985815602836879,-0.5985815602836879,-0.5985815602836879,-0.5985815602836879,-0.5985815602836879,-0.5985815602836879,-0.5985815602836879,-0.5985815602836879,-0.5985815602836879,-0.5985815602836879,-0.5985815602836879,-0.5985815602836879,-0.5985815602836879,-0.5985815602836879,-0.5985815602836879,-0.5985815602836879,-0.5985815602836879,-0.5985815602836879,-0.5985815602836879,-0.5985815602836879,-0.5985815602836879,-0.5985815602836879,-0.5985815602836879,-0.5985815602836879,-0.5985815602836879,-0.5985815602836879,-0.5985815602836879,-0.5985815602836879,-0.5985815602836879,-0.5985815602836879,-0.5985815602836879,-0.5985815602836879,-0.5985815602836879,-0.5985815602836879,-0.5985815602836879,-0.5985815602836879,-0.5985815602836879,-0.5985815602836879,-0.5985815602836879,-0.5985815602836879,-0.5985815602836879,-0.5985815602836879,-0.5985815602836879,-0.5985815602836879,-0.5985815602836879,-0.5985815602836879,-0.5985815602836879,-0.5985815602836879,-0.5985815602836879,-0.5985815602836879,-0.5985815602836879,-0.5985815602836879,-0.5985815602836879,-0.5985815602836879,-0.5985815602836879,-0.5985815602836879,-0.5985815602836879,-0.5985815602836879,-0.5985815602836879,-0.5985815602836879,-0.5985815602836879,-0.5985815602836879,-0.5985815602836879,-0.5985815602836879,-0.5985815602836879,-0.5985815602836879,-0.5985815602836879,-0.5985815602836879,-0.5985815602836879,-0.5985815602836879,-0.5985815602836879,-0.5985815602836879,-0.5985815602836879,-0.5985815602836879,-0.5985815602836879,-0.5985815602836879,-0.5985815602836879,-0.5985815602836879,-0.5985815602836879,-0.5985815602836879,-0.5985815602836879,-0.5985815602836879,-0.5985815602836879,-0.5985815602836879,-0.5985815602836879,-0.5985815602836879,-0.5985815602836879,-0.5985815602836879,-0.5985815602836879,-0.5985815602836879,-0.5985815602836879,-0.5985815602836879,-0.5985815602836879,-0.5985815602836879,-0.5985815602836879,-0.5985815602836879,-0.5985815602836879,-0.5985815602836879,-0.5985815602836879,-0.5985815602836879,-0.5985815602836879,-0.5985815602836879,-0.5985815602836879,-0.5985815602836879,-0.5985815602836879,-0.5985815602836879,-0.5985815602836879,-0.5985815602836879,-0.5985815602836879,-0.5985815602836879,-0.5985815602836879,-0.5985815602836879,-0.5985815602836879,-0.5985815602836879,-0.5985815602836879,-0.5985815602836879,-0.5985815602836879,-0.5985815602836879,-0.5985815602836879,-0.5985815602836879,-0.5985815602836879,-0.5985815602836879,-0.5985815602836879,-0.5985815602836879,-0.5985815602836879,-0.5985815602836879,-0.5985815602836879,-0.5985815602836879,-0.5985815602836879,-0.5985815602836879,-0.5985815602836879,-0.5985815602836879,-0.5985815602836879,-0.5985815602836879,-0.5985815602836879,-0.5985815602836879,-0.5985815602836879,-0.5985815602836879,-0.5985815602836879,-0.5985815602836879,-0.5985815602836879,-0.5985815602836879,-0.5985815602836879,-0.5985815602836879,-0.5985815602836879,-0.5985815602836879,-0.5985815602836879,-0.5985815602836879,-0.5985815602836879,-0.5985815602836879,-0.5985815602836879,-0.5985815602836879,-0.5985815602836879,-0.5985815602836879,-0.5985815602836879,-0.5985815602836879,-0.5985815602836879,-0.5985815602836879,-0.5985815602836879,-0.5985815602836879,-0.5985815602836879,-0.5985815602836879,-0.5985815602836879,-0.5985815602836879,-0.5985815602836879,-0.5985815602836879,-0.5985815602836879,-0.5985815602836879,-0.5985815602836879,-0.5985815602836879,-0.5985815602836879,-0.5985815602836879,-0.5985815602836879,-0.5985815602836879,-0.5985815602836879,-0.5985815602836879,-0.5985815602836879,-0.5985815602836879,-0.5985815602836879,-0.5985815602836879,-0.5985815602836879,-0.5921459441489362,-0.5921459441489362,-0.5921459441489362,-0.5921459441489362,-0.5921459441489362,-0.5921459441489362,-0.5882847129875887,-0.5882847129875887,-0.5857105011635638,-0.583136289339539,-0.5818490968528369,-0.5792750581781915,-0.5767008463541666,-0.5754136538674646,-0.5728394420434397,-0.5702652302194149,-0.5689782108820922,-0.5664039990580674,-0.5651169797207447,-0.5651169797207447,-0.5638297872340425,-0.5638297872340425,-0.5625425947473405,-0.5625425947473405,-0.5625425947473405,-0.5625425947473405,-0.5625425947473405,-0.5612555754100177,-0.5612555754100177,-0.559968556072695,-0.559968556072695,-0.558681363585993,-0.558681363585993,-0.5573941710992908,-0.5561071517619681,-0.5509587281139184,-0.5470973238031915,-0.543236092641844,-0.5393748614804964,-0.5329392453457447,-0.5290780141843971,-0.5213553787123227,-0.5123455507535462,-0.44799042830230495,-0.4029419811059397,-0.3540319564494681,-0.2819542851008422,-0.2085894212655142,-0.1377988558289007,-0.06057267425753546,-0.007801418439716312,0.06813765721963652,0.11962180712544326,0.21100606715425532,0.27278697778147165,0.30882585674312946,0.3577357082502216,0.3873391442265071,0.42595219172484483,0.465852345135195,0.5044654359208777,0.5405043148825355,0.5778302997562057,0.6022852687970967]","[1,1,1,0,0,0,0,0,0,0,0,0,0,0,0,0,0,0,0,0,0,0,0,0,0,0,0,0,0,0,0,0,0,0,0,0,0,0,0,0,0,0,0,0,0,0,0,0,0,0,0,0,0,0,0,0,0,0,0,0,0,0,0,0,0,0,0,0,0,0,0,0,0,0,0,0,0,0,0,0,0,0,0,0,0,0,0,0,0,0,0,0,0,0,0,0,0,0,0,0,0,0,0,0,0,0,0,0,0,0,0,0,0,0,0,0,0,0,0,0,0,0,0,0,0,0,0,0,0,0,0,0,0,0,0,0,0,0,0,0,0,0,0,0,0,0,0,0,0,0,0,0,0,0,0,0,0,0,0,0,0,0,0,0,0,0,0,0,0,0,0,0,0,0,0,0,0,0,0,0,0,0,0,0,0,0,0,0,0,0,0,0,0,0,0,0,0,0,0,0,0,0,0,0,0,0,0,0,0,0,0,0,0,0,0,0,0,0,0,0,0,0,0,0,0,0,0,0,0,0,0,0,0,0,0,0,0,0,0,0,0,0,0,0,0,0,0,0,0,0,0,0,0,0,0,0,0,0,0,0,0,0,0,0,0,0,0,0,0,0,0,0,0,0,0,0,0,0,0,0,0,0,0,0,0,0,0,0,0,0,0,0,0,0,0,0,0,0,0,0,0,0,0,0,0,0,0,0,0,0,0,0,0,0,0,0,0,0,0,0,0,0,0,0,0,0,0,0,0,0,0,0,0,0,0,0,0,0,0,0,0,0,0,0,0,0,0,0,0,0,0,0,0,0,0,0,0,0,0,0,0,0,0,0,0,0,0,0,0,0,0,0,0,0,0,0,0,0,0,0,0,0,0,0,0,0,0,0,0,0,0,0,0,0,0,0,0,0,0,0,0,0,0,0,0,0,0,0,0,0,0,0,0,0,0,0,0,0,0,0,0,0,0,0,0,1,1,1,1,1,1,1,1,1,1,1,1,1,1,1,1,1,1,1,1,1,1,1,1,1,1,1,1,1,1,1,1,1,1,1,1,1,1,1,1,1,1,1,1,1,1,1,1,1,1,1,1,1,1,1,1,1,1,1,1,1,1,1,1,1,1,1,1,1,1,1,1,1,1,1,1,1,1,1,1,1,1,1,1,1,1,1,1,1,1,1,1,1,1,1,1,1,1,1,1,1,1,1,1,1,1,1,1,1,1,1,1,1,1,1,1,1,1,1,1,1,1,1,1,1,1,1,1,1,1,1,1,1,1,1,1,1,1,1,1,1,1,1,1,1,1,1,1,1,1,1,1,1,1,1,1,1,1,1,1,1,1,1,1,1,1,1,1,1,1,1,1,1,1,1,1,1,1,1,1,1,1,1,1,1,1,1,1,1,1,1,1,1,1,1,1,1,1,1,1,1,1,1,1,1,1,1,1,1,1,1,1,1,1,1,1,1,1,1,1,1,1,1,1,1,1,1,1,1,1,1,1,1,1,1,1,1,1,1,1,1,1,1,1,1,1,1,1,1,1,1,1,1,1,1,1,1,1,1,1,1,1,1,1,1,1,1,1,1,1,1,1,1,1,1,1,1,1,1,1,1,1,1,1,1,1,1,1,1,1,1,1,1,1,1,1,1,1,1,1,1,1,1,1,1,1,1,1,1,1,1,1,1,1,1,1,1,1,1,1,1,1,1,1,1,1,1,1,1,1,1,1,1,1,1,1,1,1,1,1,1,1,1,1,1,1,1,1,1,1,1,1,1,1,1,1,1,1,1,1,1,1,1,1,1,1,1,1,1,1,1,1,1,1,1,1,1,1,1,1,1,1,1,1,1,1,1,1,1,1,1,1,1,1,1,1,1,1,1,1,1,1,1,1,1,1,1,1,1,1,1,1,1,1,1,1,1,1,1,1,1,1,1,1,1,1,1,1,1,1,1,1,1,1,1,1,1,1,1,1,1,1,1,1,1,1,1,1,1,1,1,1,1,1,1,1,1,1,1,1,1,1,1,1,1,1,1,1,1,1,1,1,1,1,1,1,1,1,1,1,1,1,1,1,1,1,1,1,1,1,1,1,1]","[0,0,0,0,0,0,0,0,0,0,0,0,0,0,0,0,0,0,0,0,0,0,0,0,0,0,0,0,0,0,0,0,0,0,0,0,0,0,0,0,0,0,0,0,0,0,0,0,0,0,0,0,0,0,0,0,0,0,0,0,0,0,0,0,0,0,0,0,0,0,0,0,0,0,0,0,0,0,0,0,0,0,0,0,0,0,0,0,0,0,0,0,0,0,0,0,0,0,0,0,0,0,0,0,0,0,0,0,0,0,0,0,0,0,0,0,0,0,0,0,0,0,0,0,0,0,0,0,0,0,0,0,0,0,0,0,0,0,0,0,0,0,0,0,0,0,0,0,0,0,0,0,0,0,0,0,0,0,0,0,0,0,0,0,0,0,0,0,0,0,0,0,0,0,0,0,0,0,0,0,0,0,0,0,0,0,0,0,0,0,0,0,0,0,0,0,0,0,0,0,0,0,0,0,0,0,0,0,0,0,0,0,0,0,0,0,0,0,0,0,0,0,0,0,0,0,0,0,0,0,0,0,0,0,0,0,0,0,0,0,0,0,0,0,0,0,0,0,0,0,0,0,0,0,0,0,0,0,0,0,0,0,0,0,0,0,0,0,0,0,0,0,0,0,0,0,0,0,0,0,0,0,0,0,0,0,0,0,0,0,0,0,0,0,0,0,0,0,0,0,0,0,0,0,0,0,0,0,0,0,0,0,0,0,0,0,0,0,0,0,0,0,0,0,0,0,0,0,0,0,0,0,0,0,0,0,0,0,0,0,0,0,0,0,0,0,0,0,0,0,0,0,0,0,0,0,0,0,0,0,0,0,0,0,0,0,0,0,0,0,0,0,0,0,0,0,0,0,0,0,0,0,0,0,0,0,0,0,0,0,0,0,0,0,0,0,0,0,0,0,0,0,0,0,0,0,0,0,0,0,0,0,0,0,0,0,0,0,0,0,0,0,0,0,0,0,0,0,0,0,0,0,0,0,0,0,0,0,0,0,0,0,0,0,0,0,0,0,0,0,0,0,0,0,0,0,0,0,0,0,0,0,0,0,0,0,0,0,0,0,0,0,0,0,0,0,0,0,0,0,0,0,0,0,0,0,0,0,0,0,0,0,0,0,0,0,0,0,0,0,0,0,0,0,0,0,0,0,0,0,0,0,0,0,0,0,0,0,0,0,0,0,0,0,0,0,0,0,0,0,0,0,0,0,0,0,0,0,0,0,0,0,0,0,0,0,0,0,0,0,0,0,0,0,0,0,0,0,0,0,0,0,0,0,0,0,0,0,0,0,0,0,0,0,0,0,0,0,0,0,0,0,0,0,0,0,0,0,0,0,0,0,0,0,0,0,0,0,0,0,0,0,0,0,0,0,0,0,0,0,0,0,0,0,0,0,0,0,0,0,0,0,0,0,0,0,0,0,0,0,0,0,0,0,0,0,0,0,0,0,0,0,0,0,0,0,0,0,0,0,0,0,0,0,0,0,0,0,0,0,0,0,0,0,0,0,0,0,0,0,0,0,0,0,0,0,0,0,0,0,0,0,0,0,0,0,0,0,0,0,0,0,0,0,0,0,0,0,0,0,0,0,0,0,0,0,0,0,0,0,0,0,0,0,0,0,0,0,0,0,0,0,0,0,0,0,0,0,0,0,0,0,0,0,0,0,0,0,0,0,0,0,0,0,0,0,0,0,0,0,0,0,0,0,0,0,0,0,0,0,0,0,0,0,0,0,0,0,0,0,0,0,0,0,0,0,0,0,0,0,0,0,0,0,0,0,0,0,0,0,0,0,0,0,0,0,0,0,0,0,0,0,0,0,0,0,0,0,0,0,0,0,0,0,0,0,0,0,0,0,0,0,0,0,0,0,0,0,0,0,0,0,0,0,0,0,0,0,0,0,0,0,0,0,0,0,0,0,0,0,0,0,0,0,0,0,0,0,0,0,0,0,0,0,0,0,0,0,0,0,0,0,0,0,0,0,0,0,0,0,0,0,0,0,0,0,0,0,0,0,0,0,0,0,0,0,0,0,0,0,0,0,0,0,0,0,0,0,0,0,0,0,0,0,0,0,0,0]","[0,0,0,0,0,0,0,0,0,0,0,0,0,0,0,0,0,0,0,0,0,0,0,0,0,0,0,0,0,0,0,0,0,0,0,0,0,0,0,0,0,0,0,0,0,0,0,0,0,0,0,0,0,0,0,0,0,0,0,0,0,0,0,0,0,0,0,0,0,0,0,0,0,0,0,0,0,0,0,0,0,0,0,0,0,0,0,0,0,0,0,0,0,0,0,0,0,0,0,0,0,0,0,0,0,0,0,0,0,0,0,0,0,0,0,0,0,0,0,0,0,0,0,0,0,0,0,0,0,0,0,0,0,0,0,0,0,0,0,0,0,0,0,0,0,0,0,0,0,0,0,0,0,0,0,0,0,0,0,0,0,0,0,0,0,0,0,0,0,0,0,0,0,0,0,0,0,0,0,0,0,0,0,0,0,0,0,0,0,0,0,0,0,0,0,0,0,0,0,0,0,0,0,0,0,0,0,0,0,0,0,0,0,0,0,0,0,0,0,0,0,0,0,0,0,0,0,0,0,0,0,0,0,0,0,0,0,0,0,0,0,0,0,0,0,0,0,0,0,0,0,0,0,0,0,0,0,0,0,0,0,0,0,0,0,0,0,0,0,0,0,0,0,0,0,0,0,0,0,0,0,0,0,0,0,0,0,0,0,0,0,0,0,0,0,0,0,0,0,0,0,0,0,0,0,0,0,0,0,0,0,0,0,0,0,0,0,0,0,0,0,0,0,0,0,0,0,0,0,0,0,0,0,0,0,0,0,0,0,0,0,0,0,0,0,0,0,0,0,0,0,0,0,0,0,0,0,0,0,0,0,0,0,0,0,0,0,0,0,0,0,0,0,0,0,0,0,0,0,0,0,0,0,0,0,0,0,0,0,0,0,0,0,0,0,0,0,0,0,0,0,0,0,0,0,0,0,0,0,0,0,0,0,0,0,0,0,0,0,0,0,0,0,0,0,0,0,0,0,0,0,0,0,0,0,0,0,0,0,0,0,0,0,0,0,0,0,0,0,0,0,0,0,0,0,0,0,0,0,0,0,0,0,0,0,0,0,0,0,0,0,0,0,0,0,0,0,0,0,0,0,0,0,0,0,0,0,0,0,0,0,0,0,0,0,0,0,0,0,0,0,0,0,0,0,0,0,0,0,0,0,0,0,0,0,0,0,0,0,0,0,0,0,0,0,0,0,0,0,0,0,0,0,0,0,0,0,0,0,0,0,0,0,0,0,0,0,0,0,0,0,0,0,0,0,0,0,0,0,0,0,0,0,0,0,0,0,0,0,0,0,0,0,0,0,0,0,0,0,0,0,0,0,0,0,0,0,0,0,0,0,0,0,0,0,0,0,0,0,0,0,0,0,0,0,0,0,0,0,0,0,0,0,0,0,0,0,0,0,0,0,0,0,0,0,0,0,0,0,0,0,0,0,0,0,0,0,0,0,0,0,0,0,0,0,0,0,0,0,0,0,0,0,0,0,0,0,0,0,0,0,0,0,0,0,0,0,0,0,0,0,0,0,0,0,0,0,0,0,0,0,0,0,0,0,0,0,0,0,0,0,0,0,0,0,0,0,0,0,0,0,0,0,0,0,0,0,0,0,0,0,0,0,0,0,0,0,0,0,0,0,0,0,0,0,0,0,0,0,0,0,0,0,0,0,0,0,0,0,0,0,0,0,0,0,0,0,0,0,0,0,0,0,0,0,0,0,0,0,0,0,0,0,0,0,0,0,0,0,0,0,0,0,0,0,0,0,0,0,0,0,0,0,0,0,0,0,0,0,0,0,0,0,0,0,0,0,0,0,0,0,0,0,0,0,0,0,0,0,0,0,0,0,0,0,0,0,0,0,0,0,0,0,0,0,0,0,0,0,0,0,0,0,0,0,0,0,0,0,0,0,0,0,0,0,0,0,0,0,0,0,0,0,0,0,0,0,0,0,0,0,0,0,0,0,0,0,0,0,0,0,0,0,0,0,0,0,0,0,0,0,0,0,0,0,0,0,0,0,0,0,0,0,0,0,0,0,0,0,0,0,0,0,0,0,0,0,0,0,0,0,0,0,0,0,0,0,0]","[0,0.030900000001508943,0.04869999999937136,0.07410000000157879,0.0957999999990875,0.11200000000087584,0.1287000000011176,0.15610000000003765,0.1676000000006752,0.18490000000008422,0.20509999999910633,0.22409999999933916,0.2445000000006985,0.27309999999840784,0.2924999999995066,0.3220000000001164,0.32939999999865677,0.35959999999971615,0.38349999999985585,0.39609999999811407,0.41540000000162536,0.4347999999990293,0.45569999999850097,0.48739999999816064,0.49949999999796546,0.5191000000012878,0.5384999999986917,0.5577999999986218,0.5777999999991152,0.5983999999988896,0.6260000000001469,0.6370999999998048,0.6585999999987848,0.6883000000015045,0.7007999999985941,0.7190999999983774,0.7540000000008149,0.7619000000012761,0.7875999999995997,0.8001000000002705,0.828900000000317,0.8450999999985243,0.868999999998664,0.8983999999981052,0.9150999999983469,0.9279999999998836,0.9530999999988126,0.9637000000001308,0.9913000000013881,1.0030000000005543,1.021099999998114,1.0407999999987965,1.0613999999985708,1.0913000000000466,1.111899999999821,1.1280999999980281,1.1545000000004961,1.1651999999994018,1.2008999999997627,1.219300000000601,1.2334000000009269,1.2625999999981445,1.277799999999786,1.30470000000048,1.3149999999986335,1.3345000000007872,1.353999999999246,1.3726999999997815,1.3932999999996696,1.4137000000009152,1.4300000000001774,1.450300000000368,1.487700000001439,1.4966999999996347,1.525099999998929,1.5362999999996418,1.5561000000016065,1.5748999999995021,1.6136999999980048,1.6274000000011597,1.6467000000010898,1.664700000001062,1.6843000000006896,1.7150000000000887,1.7416000000010854,1.7494000000006054,1.7697999999981562,1.7887000000009152,1.808499999999185,1.8316000000012878,1.8479999999981374,1.8682999999982144,1.8875000000006708,1.9187999999994645,1.9403999999993857,1.9529000000001702,1.9840000000003215,1.9955000000008454,2.016199999998207,2.0355999999991923,2.0567999999983613,2.0792000000000144,2.0961999999999534,2.1270000000002938,2.143100000001141,2.161599999999339,2.1824000000014507,2.212800000001039,2.2400999999990177,2.2597999999998137,2.276099999999076,2.292399999998338,2.321800000001474,2.3322000000006824,2.359300000000019,2.3755999999993946,2.392199999998354,2.4091999999981795,2.4272999999993203,2.4472999999998137,2.4677000000009457,2.49780000000095,2.5201000000014346,2.5306999999992854,2.550399999999968,2.5694000000002006,2.588100000000736,2.6064000000005194,2.6309000000000538,2.647099999998261,2.666900000000112,2.6988999999993553,2.7115999999986684,2.73070000000007,2.750499999998226,2.7697000000006824,2.7999999999992156,2.8106999999981213,2.8296000000008803,2.8489999999982842,2.8862999999983003,2.893100000001141,2.92169999999885,2.9324000000014507,2.952099999998552,2.971799999999348,3.001299999999844,3.012999999998897,3.0321000000002982,3.051500000001397,3.0707000000001585,3.0900000000000887,3.109599999999716,3.1324999999995953,3.1640999999980863,3.176100000000531,3.2050999999991063,3.216899999999441,3.246899999998277,3.2597999999998137,3.276900000000694,3.29669999999885,3.313500000000147,3.3401000000012573,3.3584999999984007,3.376100000001202,3.4039000000011015,3.415099999998347,3.434600000000387,3.4543999999986568,3.484799999998245,3.495200000001148,3.515100000000473,3.533899999998482,3.5529999999998836,3.5724000000008687,3.59379999999868,3.6231999999981213,3.6362999999983003,3.6542999999982726,3.6746999999995182,3.7030999999988126,3.7142999999995254,3.7331000000012295,3.7534000000014203,3.774199999999837,3.793600000000822,3.815200000000857,3.8464999999996508,3.86939999999953,3.8898999999982493,3.907299999998827,3.923399999999674,3.942399999999907,3.970900000000256,3.9812999999994645,4.008300000001327,4.0364000000008105,4.041600000000415,4.071899999998948,4.082399999999325,4.100699999998994,4.118900000001304,4.136600000001579,4.154200000000799,4.1820000000006985,4.192599999998436,4.221900000000403,4.242900000001043,4.257000000001369,4.2750000000013415,4.294200000000217,4.313999999998487,4.3348000000004845,4.3532999999987965,4.383399999998687,4.39380000000159,4.413199999998994,4.433000000000845,4.453099999998813,4.473300000001416,4.493900000001304,4.51369999999946,4.5341999999981795,4.553800000001388,4.5856999999995764,4.596799999999348,4.616200000000333,4.636200000000713,4.654900000001248,4.674999999999216,4.697299999999814,4.718199999999285,4.748400000000345,4.7599999999983424,4.7789000000011015,4.81320000000045,4.823299999999961,4.83980000000156,4.8581000000012295,4.882199999999898,4.892999999999972,4.911800000001676,4.9324999999989245,4.952000000001078,4.975900000001218,5.004300000000512,5.0165999999989594,5.036199999998587,5.055499999998517,5.085899999998105,5.096799999999348,5.126899999999239,5.141199999998207,5.159999999999798,5.1820000000006985,5.2001999999991995,5.21949999999913,5.2406000000009385,5.270499999998719,5.282100000000298,5.300299999998913,5.318100000000356,5.336599999998668,5.369900000001451,5.387999999998897,5.405699999999285,5.422099999999716,5.441500000000815,5.461299999998971,5.481400000000519,5.512399999999502,5.523499999999274,5.542699999998035,5.561000000001513,5.5816999999987615,5.6015000000006125,5.621500000000992,5.642299999999409,5.671200000000624,5.688500000000147,5.705499999999972,5.722600000000853,5.742799999999875,5.763299999998594,5.794499999999914,5.8061000000016065,5.823700000000713,5.862499999999216,5.872899999998424,5.889899999998249,5.908200000001614,5.9281000000009385,5.948000000000263,5.979299999998943,5.991900000000783,6.011200000000713,6.03129999999868,6.050299999998913,6.068699999999751,6.089499999998168,6.107299999999611,6.12740000000116,6.14770000000135,6.177899999998715,6.201000000000931,6.213899999998773,6.231599999999162,6.251000000000147,6.281500000000904,6.2930000000014275,6.3119999999979655,6.331399999999064,6.353200000001323,6.381499999999448,6.393199999998501,6.412899999999297,6.443400000000054,6.46489999999892,6.476200000000915,6.49610000000024,6.514899999998249,6.534999999999798,6.555599999999572,6.585500000001048,6.615900000000636,6.634300000001474,6.646000000000527,6.668600000000822,6.688699999998789,6.716100000001404,6.72729999999865,6.755399999998133,6.770599999999774,6.787100000001374,6.805899999999269,6.844600000000298,6.853899999998191,6.8722000000015555,6.891899999998657,6.91089999999889,6.931499999998664,6.961800000000892,6.990399999998715,7.011099999999658,7.02270000000135,7.052599999999018,7.070199999998238,7.087599999998929,7.115099999999018,7.126100000001202,7.154099999999744,7.169999999998254,7.193999999999448,7.206099999999367,7.22339999999889,7.24439999999953,7.264500000001078,7.2832999999990875,7.30449999999837,7.334299999998564,7.354800000000978,7.3735999999988735,7.390599999998813,7.426199999998005,7.4375,7.458200000000829,7.477999999999099,7.497400000000084,7.51610000000062,7.546200000000624,7.5570000000006985,7.587599999998929,7.6023999999997045,7.6186000000016065,7.63529999999804,7.65239999999892,7.669000000001574,7.703099999998813,7.720900000000256,7.735400000001334,7.752299999999991,7.770300000000077,7.788899999999558,7.80860000000024,7.8281999999998675,7.846600000000706,7.86599999999811,7.885200000000566,7.905299999998533,7.9347000000015555,7.952700000001528,7.96879999999868,7.986600000000124,8.004799999998738,8.025900000000433,8.045200000000364,8.065399999999386,8.095600000000559,8.106700000000217,8.135099999999511,8.152200000000391,8.168399999998599,8.185000000001253,8.21419999999847,8.237700000001439,8.25240000000116,8.280200000000946,8.300399999999968,8.319800000001067,8.335100000000182,8.36260000000027,8.37380000000121,8.393499999998198,8.412700000000768,8.432300000000396,8.462800000001039,8.473799999999642,8.492799999999875,8.512099999999805,8.531899999998075,8.567899999998133,8.587699999999984,8.60229999999865,8.618099999999572,8.644100000001288,8.67280000000028,8.755499999999302,8.790899999999851,8.810399999998424,8.824899999999502,8.856700000000217,8.882099999998843,8.902699999998617,8.92510000000027,8.946700000000419,8.966100000001404,8.987000000000876,9.00800000000163,9.028900000001101,9.049599999998463,9.07400000000041,9.096399999998482,9.11939999999953,9.14549999999872,9.16479999999865,9.176599999998757,9.199300000000108,9.232800000001532,9.252599999999688,9.27460000000059,9.292600000000675,9.303899999998976,9.32500000000067,9.357700000000364,9.37840000000142,9.403999999998575,9.426400000000228,9.446800000001474,9.470300000000861,9.483799999998098,9.516199999998207,9.534299999999348,9.550299999998913,9.566599999998175,9.594899999999996,9.618500000000438,9.641299999999262,9.665199999999402,9.687300000001358,9.70219999999972,9.733799999998098,9.750299999999697,9.766199999998207,9.794900000000666,9.816299999998478,9.838599999999076,9.862300000000573,9.886200000000713,9.912000000000205,9.933700000001295,9.949899999999502,9.967199999999139,9.997400000000084,10.019799999998156,10.044099999999162,10.063799999999844,10.08640000000014,10.108299999999758,10.121399999999937,10.143599999999367,10.173500000000729,10.195400000000461,10.21589999999918,10.233700000000624,10.24889999999857,10.279800000000193,10.303700000000333,10.324700000000973,10.348200000000247,10.369599999998059,10.391500000001486,10.402900000000955,10.423800000000426,10.456200000000536,10.476900000001365,10.500299999999697,10.52390000000014,10.547299999998245,10.575400000001537,10.593000000000643,10.604400000000112,10.627000000000294,10.66430000000031,10.685699999998121,10.708999999998866,10.732499999998254,10.753700000001118,10.77669999999847,10.800899999998308,10.823400000001016,10.848699999998587,10.865499999999884,10.882799999999293,10.90699999999913,10.939299999998184,10.962400000000287,10.981800000001272,10.99899999999974,11.032899999998222,11.05129999999906,11.075099999998145,11.086299999998971,11.116699999998673,11.13699999999875,11.159400000000403,11.1709999999984,11.193899999998393,11.214499999998168,11.236400000001481,11.26810000000114,11.290400000001625,11.31320000000045,11.331699999998762,11.347600000000853,11.37779999999833,11.400600000000736,11.423999999999069,11.445400000000461,11.456699999998762,11.47750000000076,11.496999999999332,11.535800000001416,11.561799999999437,11.579200000000014,11.590299999999786,11.610899999999674,11.630700000001411,11.652099999999223,11.67280000000028,11.704799999999409,11.715700000000652,11.736600000000124,11.758600000001024,11.78979999999865,11.802100000000792,11.821299999999553,11.851399999999558,11.87159999999858,11.892599999999106,11.915300000000457,11.93089999999927,11.947400000000869,11.97850000000102,11.990300000001241,12.010900000001016,12.033200000001614,12.05229999999932,12.083999999998866,12.111400000001481,12.122100000000387,12.154900000001248,12.174999999999216,12.197899999999208,12.220399999998222,12.253899999999646,12.27460000000059,12.298099999999977,12.32059999999899,12.33250000000038,12.352699999999402,12.384200000000419,12.39670000000109,12.416900000000112,12.447499999998342,12.462800000001039,12.490099999999018,12.501700000000596,12.52279999999871,12.551199999998005,12.571899999998948,12.583299999998417,12.606299999999464,12.6264000000009,12.659599999999045,12.683899999999937,12.708099999999774,12.730599999998901,12.746500000000992,12.763999999999157,12.785100000000853,12.818800000000806,12.841700000000799,12.853200000001323,12.886099999999658,12.908699999999953,12.932799999998622,12.955099999999106,12.96600000000035,12.999499999997965,13.021899999999619,13.043099999998901,13.066699999999344,13.088299999999379,13.100900000001218,13.121899999998277,13.141800000001183,13.16500000000076,13.193699999999751,13.207299999998156,13.224900000001071,13.242500000000177,13.262099999999805,13.290899999999851,13.311600000000908,13.329399999998657,13.345300000000861,13.365699999998412,13.399699999998063,13.431300000000135,13.447499999998342,13.473200000000247,13.492399999999122,13.515299999999115,13.537700000000768,13.551100000000531,13.573899999999355,13.606299999999464,13.617900000001043,13.64040000000017,13.672900000001334,13.692899999998133,13.704000000001486,13.725399999999297,13.74439999999953,13.765999999999565,13.799200000001179,13.811999999997965,13.845700000001614,13.861499999999069,13.890100000000473,13.909299999999348,13.92160000000149,13.941900000001567,13.962699999999984,13.995999999999185,14.01810000000114,14.044600000000969,14.066900000001567,14.090000000000089,14.100900000001218,14.122400000000084,14.154099999999744,14.183799999998882,14.203499999999565,14.226200000000915,14.236799999998766,14.257900000000461,14.278999999998575,14.299500000000876,14.340599999999483,14.357899999999006,14.38169999999809,14.40339999999918,14.415899999999851,14.448199999998906,14.469799999998827,14.480500000001427,14.502599999999688,14.535299999999495,14.555299999999875,14.566699999999344,14.606199999998296,14.62570000000045,14.648499999999274,14.67269999999911,14.694100000000503,14.711299999998971,14.728699999999549,14.760900000001016,14.777699999998617,14.794000000001574,14.813999999998487,14.84790000000055,14.870999999999185,14.882900000000461,14.904800000000193,14.936099999998873,14.965299999999786,14.986099999998203,15.008600000001024,15.034899999998743,15.05909999999858,15.082299999998156,15.104899999998338,15.13529999999804,15.143400000000838,15.162899999999297,15.194699999999898,15.209599999998261,15.237499999999216,15.25669999999809,15.267599999999106,15.303199999998412,15.325700000001234,15.345300000000861,15.370899999998016,15.390800000000922,15.411700000000508,15.426500000001397,15.443400000000054,15.464100000000997,15.485000000000582,15.518700000000536,15.533200000001614,15.566099999999949,15.588599999999076,15.610799999998505,15.6264000000009,15.654699999999139,15.683700000001295,15.70409999999896,15.715700000000652,15.738600000000531,15.757799999999293,15.779600000001551,15.811600000000908,15.825600000000065,15.853699999999549,15.872699999999782,15.894899999999325,15.919699999998556,15.932700000001148,15.952799999999115,15.986199999999371,16.009399999998948,16.03350000000131,16.056100000001607,16.07960000000088,16.102699999999402,16.11390000000023,16.135699999998906,16.15509999999989,16.1875,16.208599999998114,16.22499999999843,16.242999999998517,16.26380000000063,16.305000000000177,16.32410000000158,16.348099999999192,16.371299999998882,16.383999999998082,16.404299999998273,16.42369999999937,16.443800000000806,16.465199999998617,16.504400000001567,16.522499999999013,16.54560000000123,16.566900000001567,16.589400000000694,16.61189999999982,16.63420000000042,16.645599999999774,16.666600000000415,16.686099999998873,16.706099999999367,16.7250999999996,16.74680000000069,16.76929999999993,16.79939999999982,16.821499999998082,16.844000000000904,16.86599999999811,16.888999999999157,16.912100000001374,16.93519999999978,16.956600000001288,16.974799999999902,17.002199999998936,17.023499999999274,17.041900000000112,17.069599999998843,17.080900000000838,17.101399999999558,17.129700000001264,17.150399999998626,17.162000000000205,17.183000000000845,17.21719999999914,17.237000000000876,17.25909999999925,17.27379999999897,17.304599999999425,17.328199999999867,17.35250000000076,17.37399999999974,17.397600000000182,17.420200000000364,17.442500000000962,17.465299999999786,17.487000000000876,17.499100000000908,17.519700000000682,17.543300000001125,17.56130000000121,17.580499999999972,17.61379999999906,17.634300000001474,17.65580000000034,17.678700000000333,17.702499999999418,17.726599999998086,17.758699999998385,17.77730000000156,17.80140000000023,17.82170000000042,17.852200000001062,17.870299999998622,17.895300000000077,17.916700000001583,17.92859999999928,17.96140000000014,17.98329999999976,17.995200000001148,18.027099999999223,18.04899999999907,18.080200000000275,18.099200000000508,18.11119999999937,18.13169999999809,18.172099999999716,18.189600000001462,18.207399999999325,18.22269999999844,18.242900000001043,18.26350000000093,18.284299999999348,18.30219999999815,18.333099999999774,18.352200000001062,18.364099999998757,18.398099999998408,18.417499999999507,18.439299999998184,18.46299999999968,18.48519999999911,18.51039999999921,18.53350000000131,18.55570000000074,18.57790000000017,18.602100000000007,18.623400000000345,18.64709999999826,18.67050000000006,18.69280000000066,18.715400000000955,18.738499999999362,18.761099999999658,18.784599999999045,18.80679999999836,18.830200000000275,18.853100000000154,18.875899999999092,18.897300000000484,18.918600000000822,18.943599999998696,18.956500000000233,18.986600000000124,19.009500000000116,19.032200000001467,19.056100000001607,19.07839999999851,19.101999999998952,19.12380000000121,19.14779999999871,19.170200000000364,19.192500000000962,19.21600000000035,19.238499999999362,19.26610000000062,19.28749999999843,19.311200000000042,19.333599999998114,19.356999999999914,19.372899999998424,19.4039000000011,19.426800000001094,19.449300000000108,19.472399999998743,19.490399999998715,19.51699999999971,19.5375999999996,19.564299999998184,19.586699999999837,19.610400000001334,19.632699999998238]",19.7226,,19.7226,19.7226,"[0,-0.6]",,19.7226,8.7627,19.7226,"[0.5,0.7]",10.9599,10.4974,0.4625,8.7627,Acepta,0,0,0,0,0,1,0,25,Train,Otro,5,3,25,10,,,,,,,,,,,,,,,,,,,,,,,,,,,
,,,,,,,,,,,,,17083182,2021-04-21_10h15.56.638,DictadorBinary,2021.1.4,Linux armv7l,60.07449237,0.807407301,-0.789072716,1,0,0,partition_image,Otro,"[0.8074073012994261,0.8074073012994261,0.8074073012994261,0.8074073012994261,0.8074073012994261,0.8074073012994261,0.8074073012994261,0.8074073012994261,0.8074073012994261,0.8074073012994261,0.8074073012994261,0.8074073012994261,0.8074073012994261,0.8074073012994261,0.8074073012994261,0.8074073012994261,0.8074073012994261,0.8074073012994261,0.8074073012994261,0.8074073012994261,0.8074073012994261,0.8074073012994261,0.8074073012994261,0.8074073012994261,0.8074073012994261,0.8074073012994261,0.8074073012994261,0.8074073012994261,0.8074073012994261,0.8074073012994261,0.8074073012994261,0.8074073012994261,0.8074073012994261,0.8074073012994261,0.8074073012994261,0.8074073012994261,0.8074073012994261,0.8074073012994261,0.8074073012994261,0.8074073012994261,0.8074073012994261,0.8074073012994261,0.8074073012994261,0.8074073012994261,0.8074073012994261,0.8074073012994261,0.8074073012994261,0.8074073012994261,0.8074073012994261,0.8074073012994261,0.8074073012994261,0.8074073012994261,0.8074073012994261,0.8074073012994261,0.8074073012994261,0.8074073012994261,0.8074073012994261,0.8074073012994261,0.8074073012994261,0.8074073012994261,0.8074073012994261,0.8074073012994261,0.8074073012994261,0.8074073012994261,0.8074073012994261,0.8074073012994261,0.8074073012994261,0.8074073012994261,0.8074073012994261,0.8074073012994261,0.8074073012994261,0.8074073012994261,0.8074073012994261,0.8074073012994261,0.8074073012994261,0.8074073012994261,0.8074073012994261,0.8074073012994261,0.8074073012994261,0.8074073012994261,0.8074073012994261,0.8074073012994261,0.8074073012994261,0.8074073012994261,0.8074073012994261,0.8074073012994261,0.8074073012994261,0.8074073012994261,0.8074073012994261,0.8074073012994261,0.8074073012994261,0.8074073012994261,0.8074073012994261,0.8074073012994261,0.8074073012994261,0.8074073012994261,0.025925928232621173,0.025925928232621173,0.025925928232621173,0.025925928232621173,0.025925928232621173,0.025925928232621173,0.025925928232621173,0.025925928232621173,0.025925928232621173,0.025925928232621173,0.025925928232621173,0.025925928232621173,0.025925928232621173,0.025925928232621173,0.025925928232621173,0.025925928232621173,0.025925928232621173,0.025925928232621173,0.025925928232621173,0.025925928232621173,0.025925928232621173,0.025925928232621173,0.025925928232621173,0.025925928232621173,0.025925928232621173,0.025925928232621173,0.025925928232621173,0.025925928232621173,0.025925928232621173,0.025925928232621173,0.025925928232621173,0.025925928232621173,0.025925928232621173,0.025925928232621173,0.025925928232621173,0.025925928232621173,0.025925928232621173,0.025925928232621173,0.025925928232621173,0.025925928232621173,0.025925928232621173,0.025925928232621173,0.025925928232621173,0.025925928232621173,0.025925928232621173,0.025925928232621173,0.025925928232621173,0.025925928232621173,0.025925928232621173,0.025925928232621173,0.018518502371651785,0.011111076510682398,0.029629641163105867,0.05555556939572704,0.08333329181281887,0.12222227758290816,0.16481485172193877,0.19814814353475765,0.22777772241709185,0.24814814353475764,0.2777777224170918,0.30555556939572703,0.3314814353475765,0.34444443060427293,0.36666658362563775,0.38703700474330355,0.4129628706951531,0.43333341637436223]","[-0.7890727158133866,-0.7890727158133866,-0.7890727158133866,-0.7890727158133866,-0.7890727158133866,-0.7890727158133866,-0.7890727158133866,-0.7890727158133866,-0.7890727158133866,-0.7890727158133866,-0.7890727158133866,-0.7890727158133866,-0.7890727158133866,-0.7890727158133866,-0.7890727158133866,-0.7890727158133866,-0.7890727158133866,-0.7890727158133866,-0.7890727158133866,-0.7890727158133866,-0.7890727158133866,-0.7890727158133866,-0.7890727158133866,-0.7890727158133866,-0.7890727158133866,-0.7890727158133866,-0.7890727158133866,-0.7890727158133866,-0.7890727158133866,-0.7890727158133866,-0.7890727158133866,-0.7890727158133866,-0.7890727158133866,-0.7890727158133866,-0.7890727158133866,-0.7890727158133866,-0.7890727158133866,-0.7890727158133866,-0.7890727158133866,-0.7890727158133866,-0.7890727158133866,-0.7890727158133866,-0.7890727158133866,-0.7890727158133866,-0.7890727158133866,-0.7890727158133866,-0.7890727158133866,-0.7890727158133866,-0.7890727158133866,-0.7890727158133866,-0.7890727158133866,-0.7890727158133866,-0.7890727158133866,-0.7890727158133866,-0.7890727158133866,-0.7890727158133866,-0.7890727158133866,-0.7890727158133866,-0.7890727158133866,-0.7890727158133866,-0.7890727158133866,-0.7890727158133866,-0.7890727158133866,-0.7890727158133866,-0.7890727158133866,-0.7890727158133866,-0.7890727158133866,-0.7890727158133866,-0.7890727158133866,-0.7890727158133866,-0.7890727158133866,-0.7890727158133866,-0.7890727158133866,-0.7890727158133866,-0.7890727158133866,-0.7890727158133866,-0.7890727158133866,-0.7890727158133866,-0.7890727158133866,-0.7890727158133866,-0.7890727158133866,-0.7890727158133866,-0.7890727158133866,-0.7890727158133866,-0.7890727158133866,-0.7890727158133866,-0.7890727158133866,-0.7890727158133866,-0.7890727158133866,-0.7890727158133866,-0.7890727158133866,-0.7890727158133866,-0.7890727158133866,-0.7890727158133866,-0.7890727158133866,-0.7890727158133866,-0.5818490968528369,-0.5818490968528369,-0.5818490968528369,-0.5818490968528369,-0.5818490968528369,-0.5818490968528369,-0.5818490968528369,-0.5818490968528369,-0.5818490968528369,-0.5818490968528369,-0.5818490968528369,-0.5818490968528369,-0.5818490968528369,-0.5818490968528369,-0.5818490968528369,-0.5818490968528369,-0.5818490968528369,-0.5818490968528369,-0.5818490968528369,-0.5818490968528369,-0.5818490968528369,-0.5818490968528369,-0.5818490968528369,-0.5818490968528369,-0.5818490968528369,-0.5818490968528369,-0.5818490968528369,-0.5818490968528369,-0.5818490968528369,-0.5818490968528369,-0.5818490968528369,-0.5818490968528369,-0.5818490968528369,-0.5818490968528369,-0.5818490968528369,-0.5818490968528369,-0.5818490968528369,-0.5818490968528369,-0.5818490968528369,-0.5818490968528369,-0.5818490968528369,-0.5818490968528369,-0.5818490968528369,-0.5818490968528369,-0.5818490968528369,-0.5818490968528369,-0.5818490968528369,-0.5818490968528369,-0.5818490968528369,-0.5818490968528369,-0.5741266345301419,-0.5509587281139184,-0.4634356992464539,-0.38620960424977835,-0.32442860704787235,-0.2330443470190603,-0.14294719290226063,-0.06057267425753546,0.017940699800531916,0.07071186904366135,0.160809023160461,0.2457578402039007,0.32040980995124113,0.3680325555463209,0.4349618898215869,0.5006041181848404,0.5623851153867464,0.6022852687970967]","[1,1,0,0,0,0,0,0,0,0,0,0,0,0,0,0,0,0,0,0,0,0,0,0,0,0,0,0,0,0,0,0,0,0,0,0,0,0,0,0,0,0,0,0,0,0,0,0,0,0,0,0,0,0,0,0,0,0,0,0,0,0,0,0,0,0,0,0,0,0,0,0,0,0,0,0,0,0,0,0,0,0,0,0,0,0,0,0,0,0,0,0,0,0,0,0,1,1,1,1,1,1,1,1,1,1,1,1,1,1,1,1,1,1,1,1,1,1,1,1,1,1,1,1,1,1,1,1,1,1,1,1,1,1,1,1,1,1,1,1,1,1,1,1,1,1,1,1,1,1,1,1,1,1,1,1,1,1,1,1,1,1,1,1]","[0,0,0,0,0,0,0,0,0,0,0,0,0,0,0,0,0,0,0,0,0,0,0,0,0,0,0,0,0,0,0,0,0,0,0,0,0,0,0,0,0,0,0,0,0,0,0,0,0,0,0,0,0,0,0,0,0,0,0,0,0,0,0,0,0,0,0,0,0,0,0,0,0,0,0,0,0,0,0,0,0,0,0,0,0,0,0,0,0,0,0,0,0,0,0,0,0,0,0,0,0,0,0,0,0,0,0,0,0,0,0,0,0,0,0,0,0,0,0,0,0,0,0,0,0,0,0,0,0,0,0,0,0,0,0,0,0,0,0,0,0,0,0,0,0,0,0,0,0,0,0,0,0,0,0,0,0,0,0,0,0,0,0,0]","[0,0,0,0,0,0,0,0,0,0,0,0,0,0,0,0,0,0,0,0,0,0,0,0,0,0,0,0,0,0,0,0,0,0,0,0,0,0,0,0,0,0,0,0,0,0,0,0,0,0,0,0,0,0,0,0,0,0,0,0,0,0,0,0,0,0,0,0,0,0,0,0,0,0,0,0,0,0,0,0,0,0,0,0,0,0,0,0,0,0,0,0,0,0,0,0,0,0,0,0,0,0,0,0,0,0,0,0,0,0,0,0,0,0,0,0,0,0,0,0,0,0,0,0,0,0,0,0,0,0,0,0,0,0,0,0,0,0,0,0,0,0,0,0,0,0,0,0,0,0,0,0,0,0,0,0,0,0,0,0,0,0,0,0]","[0,0.005499999999301508,0.02049999999871943,0.060099999998726616,0.07129999999955317,0.09279999999853317,0.11189999999982092,0.13190000000020063,0.15209999999922275,0.1713999999991529,0.20780000000007703,0.21379999999771826,0.2313999999968246,0.2525999999996884,0.2723000000004845,0.29079999999879647,0.31019999999978154,0.3313999999990642,0.3509999999986917,0.36899999999866395,0.3883999999997627,0.4187999999994645,0.4300999999977648,0.4494999999987499,0.468899999999735,0.48769999999785796,0.5064999999994484,0.5374999999984311,0.5580999999983192,0.5694999999977881,0.5898999999989201,0.6073999999970852,0.6383999999997627,0.6487999999989711,0.6677999999992039,0.6864999999997394,0.7063999999990642,0.725800000000163,0.7487000000000421,0.7662999999992621,0.7965999999977953,0.8125999999973601,0.8287999999992621,0.8463999999984821,0.865899999996941,0.896199999999169,0.9122999999999024,0.9290000000000305,0.9470000000001164,0.9791999999978884,0.9957999999968479,1.0122999999984472,1.0409999999974389,1.0609999999978186,1.0795999999972992,1.0952999999971667,1.111799999998766,1.1313999999983935,1.159400000000403,1.1706999999987033,1.1898999999975786,1.209599999998261,1.229400000000112,1.2472999999990293,1.2673999999969965,1.2984999999970341,1.319599999998843,1.3303999999988037,1.3497999999999024,1.3698000000003958,1.400199999999984,1.4114999999982842,1.431499999998664,1.4498999999995021,1.4866999999975974,1.49610000000024,1.5226000000001818,1.533099999996864,1.5521999999981517,1.5726999999968712,1.5930999999982305,1.6120999999984633,1.631999999997788,1.6687999999994645,1.6788999999989755,1.6950999999971827,1.7129999999996812,1.733000000000061,1.7700000000003797,1.7779999999983147,1.7942999999976905,1.823599999999658,1.8341999999975087,1.8524999999971783,1.8707999999968479,1.889199999997686,1.9238000000004263,1.9412999999984777,2.007900000000461,2.0447999999996114,2.0675999999984356,2.0879999999996812,2.110899999999674,2.132999999997935,2.143899999999064,2.1636999999972204,2.191599999998175,2.2107999999970502,2.2277999999968756,2.251399999997318,2.2731999999995764,2.294099999999162,2.3109999999978186,2.3304999999999723,2.3505999999978258,2.3730999999970663,2.3925999999991063,2.4238999999979,2.446499999998082,2.4680999999982305,2.481199999998296,2.5135999999982914,2.535700000000247,2.5592999999971084,2.5769000000000233,2.6062999999994645,2.6283999999977254,2.644000000000233,2.66019999999844,2.689299999998184,2.723200000000247,2.7462999999988824,2.76199999999875,2.7906999999977415,2.8119999999979655,2.8329999999987194,2.8562999999994645,2.867899999997462,2.8894000000000233,2.909099999997011,2.931399999997609,2.968899999999735,2.9808999999985986,2.999599999999134,3.021300000000224,3.0531999999984123,3.0648999999975786,3.0949999999974693,3.115799999999581,3.1394999999973834,3.1630000000004657,3.1875,3.2111000000004424,3.235899999999674,3.2576999999982377,3.2801999999973646,3.3034999999981096,3.3256000000000654,3.3482999999978347,3.3712999999988824,3.393199999998501,3.4166999999978884,3.4411999999974228,3.4622999999992317]",3.5146,,3.5146,3.5146,"[0,-0.6]",,3.5146,1.9936,3.5146,"[0.5,0.7]",1.521,1.1745,0.3465,1.9936,Acepta,0,0,1,1,1,1,6,19,Train,Otro,5,3,25,10,,,,,,,,,,,,,,,,,,,,,,,,,,,
,,,,,,,,,,,,,17083182,2021-04-21_10h15.56.638,DictadorBinary,2021.1.4,Linux armv7l,60.07449237,0.824074009,-0.786498504,1,0,0,partition_image,Otro,"[0.8240740094866071,0.8240740094866071,0.8240740094866071,0.8240740094866071,0.8240740094866071,0.8240740094866071,0.8240740094866071,0.8240740094866071,0.8240740094866071,0.8240740094866071,0.8240740094866071,0.8240740094866071,0.8240740094866071,0.8240740094866071,0.8240740094866071,0.8240740094866071,0.8240740094866071,0.8240740094866071,0.8240740094866071,0.8240740094866071,0.8240740094866071,0.8240740094866071,0.8240740094866071,0.8240740094866071,0.8240740094866071,0.8240740094866071,0.8240740094866071,0.8240740094866071,0.8240740094866071,0.8240740094866071,0.8240740094866071,0.8240740094866071,0.8240740094866071,0.8240740094866071,0.8240740094866071,0.8240740094866071,0.8055554448341836,0.8018518564652424,0.7999998754384566,0.7944444306042729,0.7944444306042729,0.7944444306042729,0.7944444306042729,0.7944444306042729,0.7944444306042729,0.7944444306042729,0.7944444306042729,0.7944444306042729,0.7944444306042729,0.7944444306042729,0.7944444306042729,0.7944444306042729,0.7944444306042729,0.7944444306042729,0.7944444306042729,0.7944444306042729,0.7944444306042729,0.7944444306042729,0.7944444306042729,0.7944444306042729,0.7944444306042729,0.7944444306042729,0.7944444306042729,0.7944444306042729,0.7944444306042729,0.7944444306042729,0.7944444306042729,0.7944444306042729,0.7944444306042729,0.7944444306042729,0.7944444306042729,0.7944444306042729,0.7944444306042729,0.7944444306042729,0.7944444306042729,0.7944444306042729,0.7944444306042729,0.7944444306042729,0.7944444306042729,0.7944444306042729,0.7944444306042729,0.040740717673788264,0.040740717673788264,0.040740717673788264,0.040740717673788264,0.040740717673788264,0.040740717673788264,0.040740717673788264,0.040740717673788264,0.040740717673788264,0.040740717673788264,0.040740717673788264,0.040740717673788264,0.040740717673788264,0.040740717673788264,0.040740717673788264,0.040740717673788264,0.040740717673788264,0.040740717673788264,0.040740717673788264,0.040740717673788264,0.040740717673788264,0.040740717673788264,0.040740717673788264,0.040740717673788264,0.040740717673788264,0.040740717673788264,0.040740717673788264,0.040740717673788264,0.040740717673788264,0.040740717673788264,0.027777722417091838,0.024074009486607144,0.02222221530213648,0.02222221530213648,0.02222221530213648,0.02222221530213648,0.02037029655612245,0.02037029655612245,0.02037029655612245,0.02037029655612245,0.02037029655612245,0.02037029655612245,0.02037029655612245,0.018518502371651785,0.018518502371651785,0.018518502371651785,0.016666583625637756,0.016666583625637756,0.016666583625637756,0.033333291812818876,0.06666658362563775,0.07592599051339285,0.11111113879145408,0.1462962870695153,0.17407400948660715,0.22222227758290816,0.24444443060427296,0.27037029655612244,0.2925925741390306,0.3148148517219388,0.32777772241709185,0.34814814353475765,0.36111113879145407,0.394444430604273,0.4166667081871811]","[-0.7864985039893617,-0.7864985039893617,-0.7864985039893617,-0.7864985039893617,-0.7864985039893617,-0.7864985039893617,-0.7864985039893617,-0.7864985039893617,-0.7864985039893617,-0.7864985039893617,-0.7864985039893617,-0.7864985039893617,-0.7864985039893617,-0.7864985039893617,-0.7864985039893617,-0.7864985039893617,-0.7864985039893617,-0.7864985039893617,-0.7864985039893617,-0.7864985039893617,-0.7864985039893617,-0.7864985039893617,-0.7864985039893617,-0.7864985039893617,-0.7864985039893617,-0.7864985039893617,-0.7864985039893617,-0.7864985039893617,-0.7864985039893617,-0.7864985039893617,-0.7864985039893617,-0.7864985039893617,-0.7864985039893617,-0.7864985039893617,-0.7864985039893617,-0.7864985039893617,-0.7864985039893617,-0.7864985039893617,-0.7852113115026595,-0.7852113115026595,-0.7852113115026595,-0.7852113115026595,-0.7852113115026595,-0.7852113115026595,-0.7852113115026595,-0.7852113115026595,-0.7852113115026595,-0.7852113115026595,-0.7852113115026595,-0.7852113115026595,-0.7852113115026595,-0.7852113115026595,-0.7852113115026595,-0.7852113115026595,-0.7852113115026595,-0.7852113115026595,-0.7852113115026595,-0.7852113115026595,-0.7852113115026595,-0.7852113115026595,-0.7852113115026595,-0.7852113115026595,-0.7852113115026595,-0.7852113115026595,-0.7852113115026595,-0.7852113115026595,-0.7852113115026595,-0.7852113115026595,-0.7852113115026595,-0.7852113115026595,-0.7852113115026595,-0.7852113115026595,-0.7852113115026595,-0.7852113115026595,-0.7852113115026595,-0.7852113115026595,-0.7852113115026595,-0.7852113115026595,-0.7852113115026595,-0.7852113115026595,-0.7852113115026595,-0.5213553787123227,-0.5213553787123227,-0.5213553787123227,-0.5213553787123227,-0.5213553787123227,-0.5213553787123227,-0.5213553787123227,-0.5213553787123227,-0.5213553787123227,-0.5213553787123227,-0.5213553787123227,-0.5213553787123227,-0.5213553787123227,-0.5213553787123227,-0.5213553787123227,-0.5213553787123227,-0.5213553787123227,-0.5213553787123227,-0.5213553787123227,-0.5213553787123227,-0.5213553787123227,-0.5213553787123227,-0.5213553787123227,-0.5213553787123227,-0.5213553787123227,-0.5213553787123227,-0.5213553787123227,-0.5213553787123227,-0.5213553787123227,-0.5213553787123227,-0.5097715120789007,-0.5059101077681738,-0.5059101077681738,-0.5059101077681738,-0.504623088430851,-0.504623088430851,-0.504623088430851,-0.504623088430851,-0.504623088430851,-0.504623088430851,-0.504623088430851,-0.504623088430851,-0.504623088430851,-0.503335895944149,-0.5020488766068263,-0.5020488766068263,-0.4994746647828014,-0.4969004529587766,-0.487890625,-0.42096137729942373,-0.31928018339982267,-0.278092967364805,-0.17641186003989362,-0.08502760001108156,-0.019385371647828015,0.1118991716533688,0.16981876454454786,0.2547674950132979,0.32555823359929076,0.3873391442265071,0.41822959954011524,0.465852345135195,0.49802994964816044,0.5623851153867464,0.6035723747091091]","[1,1,1,1,1,1,1,1,1,1,1,1,1,1,1,1,1,1,1,1,1,1,1,1,1,1,1,1,1,1,1,1,1,1,1,1,1,1,1,1,0,0,0,0,0,0,0,0,0,0,0,0,0,0,0,0,0,0,0,0,0,0,0,0,0,0,0,0,0,0,0,0,0,0,0,0,0,0,0,0,0,1,1,1,1,1,1,1,1,1,1,1,1,1,1,1,1,1,1,1,1,1,1,1,1,1,1,1,1,1,1,1,1,1,1,1,1,1,1,1,1,1,1,1,1,1,1,1,1,1,1,1,1,1,1,1,1,1,1,1,1,1,1,1,1,1]","[0,0,0,0,0,0,0,0,0,0,0,0,0,0,0,0,0,0,0,0,0,0,0,0,0,0,0,0,0,0,0,0,0,0,0,0,0,0,0,0,0,0,0,0,0,0,0,0,0,0,0,0,0,0,0,0,0,0,0,0,0,0,0,0,0,0,0,0,0,0,0,0,0,0,0,0,0,0,0,0,0,0,0,0,0,0,0,0,0,0,0,0,0,0,0,0,0,0,0,0,0,0,0,0,0,0,0,0,0,0,0,0,0,0,0,0,0,0,0,0,0,0,0,0,0,0,0,0,0,0,0,0,0,0,0,0,0,0,0,0,0,0,0,0,0,0]","[0,0,0,0,0,0,0,0,0,0,0,0,0,0,0,0,0,0,0,0,0,0,0,0,0,0,0,0,0,0,0,0,0,0,0,0,0,0,0,0,0,0,0,0,0,0,0,0,0,0,0,0,0,0,0,0,0,0,0,0,0,0,0,0,0,0,0,0,0,0,0,0,0,0,0,0,0,0,0,0,0,0,0,0,0,0,0,0,0,0,0,0,0,0,0,0,0,0,0,0,0,0,0,0,0,0,0,0,0,0,0,0,0,0,0,0,0,0,0,0,0,0,0,0,0,0,0,0,0,0,0,0,0,0,0,0,0,0,0,0,0,0,0,0,0,0]","[0,0.006099999998696148,0.03009999999989077,0.0534999999982233,0.07839999999850988,0.10169999999925494,0.12299999999959255,0.14679999999856364,0.1678999999966777,0.18289999999979045,0.2102999999988242,0.22049999999950387,0.2394999999997367,0.2595000000001164,0.27739999999903375,0.2954999999965935,0.3138999999974317,0.3392999999996391,0.3605999999999767,0.37089999999813017,0.40109999999907586,0.41939999999885913,0.43179999999847496,0.44859999999965794,0.4681999999992854,0.4883999999983075,0.5216000000000349,0.5327999999971667,0.5533999999970547,0.5854999999973529,0.5987999999997555,0.6151999999964914,0.6357999999999606,0.6578999999983353,0.6888999999974317,0.6996999999973923,0.7202999999971667,0.7498999999989451,0.7685999999994806,0.791799999999057,0.805899999999383,0.831499999996538,0.8479999999981374,0.8651999999964914,0.8811999999997511,0.9015999999974156,0.9216999999989639,0.9414999999971201,0.9601999999976556,0.9794999999975857,1.0000999999974738,1.0182999999997833,1.038699999997334,1.0580999999984328,1.077499999999418,1.0968999999968219,1.1169999999983702,1.1349999999984561,1.1652999999969893,1.1807999999982144,1.1974999999984561,1.2142999999996391,1.2338999999992666,1.2655999999988126,1.2815999999983774,1.2974999999968873,1.314199999997129,1.3331999999973618,1.3521000000000072,1.3713999999999373,1.3920999999972992,1.411099999997532,1.4310999999979117,1.449399999997695,1.479299999999057,1.4995999999992478,1.5136999999995737,1.5304999999971756,1.550099999996803,1.567799999997078,1.586699999999837,1.612599999996803,1.6401999999980603,1.701099999998405,1.7356999999974505,1.7562999999973385,1.778999999998689,1.804099999997618,1.8337999999967565,1.8468999999968219,1.8637999999991735,1.8815999999970359,1.9011999999966633,1.9301999999988197,1.9481999999989057,1.9629999999996812,1.9803999999966777,2.0011999999987893,2.022099999998261,2.04320000000007,2.076499999999271,2.1000999999997134,2.1225999999987266,2.13459999999759,2.1551999999974782,2.17559999999861,2.2157999999981257,2.2343999999974926,2.264099999996631,2.2824000000001092,2.3060999999979117,2.328699999998207,2.351699999999255,2.3733999999967637,2.393899999999178,2.4178999999966777,2.440099999999802,2.454299999997602,2.4835999999995693,2.495999999999185,2.5151999999980603,2.5356999999967798,2.557699999997567,2.578699999998207,2.6012999999985027,2.63289999999688,2.6533999999992943,2.6774999999979627,2.7053999999989173,2.727599999998347,2.752199999998936,2.7757999999993785,2.7999999999992156,2.824799999998447,2.84599999999773,2.866199999996752,2.8915999999989594,2.9143999999978973,2.9399999999986335,2.96069999999969,2.9835999999995693,3.00789999999688,3.03109999999657,3.0490999999965425,3.080199999996694,3.1028999999980442]",3.1566,,3.1566,3.1566,"[0,-0.6]",,3.1566,1.6938,3.1566,"[0.5,0.7]",1.4628,1.0875,0.3753,1.6938,Acepta,0,0,2,2,2,1,13,12,Train,Otro,5,3,25,10,,,,,,,,,,,,,,,,,,,,,,,,,,,
,,,,,,,,,,,,,17083182,2021-04-21_10h15.56.638,DictadorBinary,2021.1.4,Linux armv7l,60.07449237,0.783333167,-0.791646928,1,0,0,partition_image,Otro,"[0.7833331672512756,0.7833331672512756,0.7833331672512756,0.7833331672512756,0.7833331672512756,0.7833331672512756,0.7833331672512756,0.7833331672512756,0.7833331672512756,0.7833331672512756,0.7833331672512756,0.7833331672512756,0.7833331672512756,0.7833331672512756,0.7833331672512756,0.7833331672512756,0.7833331672512756,0.7833331672512756,0.7833331672512756,0.7833331672512756,0.7833331672512756,0.7833331672512756,0.7833331672512756,0.7833331672512756,0.7833331672512756,0.7833331672512756,0.7833331672512756,0.7833331672512756,0.7833331672512756,0.7833331672512756,0.7833331672512756,0.7833331672512756,0.7833331672512756,0.7833331672512756,0.7833331672512756,0.7833331672512756,0.7833331672512756,0.7833331672512756,0.7833331672512756,0.7833331672512756,0.7833331672512756,0.7833331672512756,0.7833331672512756,0.7833331672512756,0.7833331672512756,0.7833331672512756,0.7833331672512756,0.7833331672512756,0.7833331672512756,0.7833331672512756,0.7833331672512756,0.7833331672512756,0.7833331672512756,0.7833331672512756,0.7833331672512756,0.033333291812818876,0.033333291812818876,0.033333291812818876,0.033333291812818876,0.033333291812818876,0.033333291812818876,0.033333291812818876,0.033333291812818876,0.033333291812818876,0.033333291812818876,0.033333291812818876,0.033333291812818876,0.033333291812818876,0.033333291812818876,0.033333291812818876,0.033333291812818876,0.033333291812818876,0.033333291812818876,0.033333291812818876,0.033333291812818876,0.033333291812818876,0.033333291812818876,0.033333291812818876,0.027777722417091838,0.014814789441167093,-6.228077168367348e-8,-0.014814851721938775,-0.04444443060427296,-0.06481472716039541,-0.11481472716039541,-0.14074071767378826,-0.17962970344387755,-0.21851856465242347,-0.246296349350287,-0.28703700474330357,-0.33518521055883294,-0.38333335409359054,-0.42592592823262115,-0.45,-0.47777778469786353,-0.49259260527941645,-0.49629631820990117,-0.4981481746751435,-0.5000000311403858,-0.5000000311403858]","[-0.7916469276374114,-0.7916469276374114,-0.7916469276374114,-0.7916469276374114,-0.7916469276374114,-0.7916469276374114,-0.7916469276374114,-0.7916469276374114,-0.7916469276374114,-0.7916469276374114,-0.7916469276374114,-0.7916469276374114,-0.7916469276374114,-0.7916469276374114,-0.7916469276374114,-0.7916469276374114,-0.7916469276374114,-0.7916469276374114,-0.7916469276374114,-0.7916469276374114,-0.7916469276374114,-0.7916469276374114,-0.7916469276374114,-0.7916469276374114,-0.7916469276374114,-0.7916469276374114,-0.7916469276374114,-0.7916469276374114,-0.7916469276374114,-0.7916469276374114,-0.7916469276374114,-0.7916469276374114,-0.7916469276374114,-0.7916469276374114,-0.7916469276374114,-0.7916469276374114,-0.7916469276374114,-0.7916469276374114,-0.7916469276374114,-0.7916469276374114,-0.7916469276374114,-0.7916469276374114,-0.7916469276374114,-0.7916469276374114,-0.7916469276374114,-0.7916469276374114,-0.7916469276374114,-0.7916469276374114,-0.7916469276374114,-0.7916469276374114,-0.7916469276374114,-0.7916469276374114,-0.7916469276374114,-0.7916469276374114,-0.7916469276374114,-0.6204622742132092,-0.6204622742132092,-0.6204622742132092,-0.6204622742132092,-0.6204622742132092,-0.6204622742132092,-0.6204622742132092,-0.6204622742132092,-0.6204622742132092,-0.6204622742132092,-0.6204622742132092,-0.6204622742132092,-0.6204622742132092,-0.6204622742132092,-0.6204622742132092,-0.6204622742132092,-0.6204622742132092,-0.6204622742132092,-0.6204622742132092,-0.6204622742132092,-0.6204622742132092,-0.6204622742132092,-0.6204622742132092,-0.61016542691711,-0.5895719054742907,-0.5561071517619681,-0.5174939744015957,-0.44026787940492024,-0.3810611806017287,-0.2587864652593085,-0.20215389170545212,-0.12364069079676418,-0.045127489888076244,0.005069554105718085,0.07972161042774822,0.15694779199911346,0.22773835743572696,0.2959547976230053,0.33971635534408245,0.40535854041999114,0.465852345135195,0.5109010087682846,0.5559495858266844,0.5868400411402925,0.6331757241107048]","[1,0,0,0,0,0,0,0,0,0,0,0,0,0,0,0,0,0,0,0,0,0,0,0,0,0,0,0,0,0,0,0,0,0,0,0,0,0,0,0,0,0,0,0,0,0,0,0,0,0,0,0,0,0,0,1,1,1,1,1,1,1,1,1,1,1,1,1,1,1,1,1,1,1,1,1,1,1,1,1,1,1,1,1,1,1,1,1,1,1,1,1,1,1,1,1,1,1,1,1]","[0,0,0,0,0,0,0,0,0,0,0,0,0,0,0,0,0,0,0,0,0,0,0,0,0,0,0,0,0,0,0,0,0,0,0,0,0,0,0,0,0,0,0,0,0,0,0,0,0,0,0,0,0,0,0,0,0,0,0,0,0,0,0,0,0,0,0,0,0,0,0,0,0,0,0,0,0,0,0,0,0,0,0,0,0,0,0,0,0,0,0,0,0,0,0,0,0,0,0,0]","[0,0,0,0,0,0,0,0,0,0,0,0,0,0,0,0,0,0,0,0,0,0,0,0,0,0,0,0,0,0,0,0,0,0,0,0,0,0,0,0,0,0,0,0,0,0,0,0,0,0,0,0,0,0,0,0,0,0,0,0,0,0,0,0,0,0,0,0,0,0,0,0,0,0,0,0,0,0,0,0,0,0,0,0,0,0,0,0,0,0,0,0,0,0,0,0,0,0,0,0]","[0.00020000000222353265,0.008200000000272212,0.028099999999597003,0.041300000000831005,0.06190000000060536,0.08610000000044238,0.10440000000022565,0.12340000000045848,0.1434000000008382,0.17320000000103164,0.18460000000050059,0.20530000000144355,0.2231000000028871,0.24309999999968568,0.2633000000022889,0.28200000000282444,0.3019000000021492,0.3312000000005355,0.34230000000019345,0.3618000000024608,0.37989999999990687,0.40079999999937854,0.42070000000239816,0.4520000000010782,0.4664000000011015,0.4827000000004773,0.5011000000013155,0.520700000000943,0.548500000000729,0.5662000000011176,0.5970000000015716,0.6042000000015832,0.6229000000021188,0.6422999999995227,0.6719000000011874,0.6824000000014507,0.7010000000009313,0.7203000000008615,0.7502999999996973,0.7666000000026543,0.7829999999995039,0.8000000000029104,0.8309000000008382,0.8417000000007988,0.8608000000022002,0.8798999999999069,0.9003000000011525,0.9184999999997672,0.9377000000022235,0.9574000000030196,0.9864000000015949,0.9988000000012107,1.0156000000025074,1.0336999999999534,1.0600000000013665,1.0812000000005355,1.111000000000729,1.1889000000010128,1.224800000000016,1.2379000000000815,1.257499999999709,1.2769000000008077,1.3001000000003842,1.3173999999999069,1.3356000000021027,1.353800000000831,1.3767000000007101,1.4073000000025218,1.436600000000908,1.4566000000012878,1.4783000000024913,1.4927000000025146,1.5244999999995343,1.536500000001979,1.5671000000002095,1.586800000000892,1.6098999999995272,1.6324000000022352,1.6501000000026238,1.6797000000005937,1.7041000000026543,1.7268000000003099,1.7486000000025683,1.768900000002759,1.794000000001688,1.8188000000009197,1.839700000000505,1.863900000000342,1.8853000000017346,1.9092000000018743,1.9311000000016065,1.9544000000023516,1.978900000001886,2.001200000002484,2.026400000002468,2.0473000000019397,2.070400000000575,2.0940000000010173,2.116200000000333,2.1376000000018394]",2.1881,,2.1881,2.1881,"[0,-0.6]",,2.1881,,,,1.0265,0.6376,0.3889,1.1616,Rechaza,0,0,3,3,3,1,19,6,Train,Otro,5,3,25,10,1.1616,2.1881,"[-0.5,0.7]",,,,,,,,,,,,,,,,,,,,,,,,
,,,,,,,,,,,,,17083182,2021-04-21_10h15.56.638,DictadorBinary,2021.1.4,Linux armv7l,60.07449237,0.794444431,-0.801943775,1,0,0,partition_image,Otro,"[0.7944444306042729,0.7944444306042729,0.7944444306042729,0.7944444306042729,0.7944444306042729,0.7944444306042729,0.7944444306042729,0.7944444306042729,0.7944444306042729,0.7944444306042729,0.7944444306042729,0.7944444306042729,0.7944444306042729,0.7944444306042729,0.7944444306042729,0.7944444306042729,0.7944444306042729,0.7944444306042729,0.7944444306042729,0.7944444306042729,0.7944444306042729,0.7944444306042729,0.7944444306042729,0.7944444306042729,0.7944444306042729,0.7944444306042729,0.7944444306042729,0.7944444306042729,0.7944444306042729,0.7944444306042729,0.7944444306042729,0.7944444306042729,0.7944444306042729,0.7944444306042729,0.7944444306042729,0.7944444306042729,0.7944444306042729,0.7944444306042729,0.7944444306042729,-0.0037037129304846937,-0.0037037129304846937,-0.0037037129304846937,-0.0037037129304846937,-0.0037037129304846937,-0.0037037129304846937,-0.0037037129304846937,-0.0037037129304846937,-0.0037037129304846937,-0.0037037129304846937,-0.0037037129304846937,-0.0037037129304846937,-0.0037037129304846937,-0.0037037129304846937,-0.0037037129304846937,-0.0037037129304846937,-0.0037037129304846937,-0.0037037129304846937,-0.0037037129304846937,-0.0037037129304846937,-0.0037037129304846937,-0.0037037129304846937,-0.02777778469786352,-0.04259263641980229,-0.06851856465242347,-0.09814808125398597,-0.12962970344387756,-0.1574074258609694,-0.17407407176737882,-0.2037037129304847,-0.2351852105588329,-0.25925922004544005,-0.27962970344387755,-0.29444443060427294,-0.3148148517219388,-0.33888886120854594,-0.36296299525669645,-0.3777777846978635,-0.4,-0.4222222153021365,-0.44444443060427297,-0.45370371293048467,-0.46296299525669643]","[-0.8019437749335107,-0.8019437749335107,-0.8019437749335107,-0.8019437749335107,-0.8019437749335107,-0.8019437749335107,-0.8019437749335107,-0.8019437749335107,-0.8019437749335107,-0.8019437749335107,-0.8019437749335107,-0.8019437749335107,-0.8019437749335107,-0.8019437749335107,-0.8019437749335107,-0.8019437749335107,-0.8019437749335107,-0.8019437749335107,-0.8019437749335107,-0.8019437749335107,-0.8019437749335107,-0.8019437749335107,-0.8019437749335107,-0.8019437749335107,-0.8019437749335107,-0.8019437749335107,-0.8019437749335107,-0.8019437749335107,-0.8019437749335107,-0.8019437749335107,-0.8019437749335107,-0.8019437749335107,-0.8019437749335107,-0.8019437749335107,-0.8019437749335107,-0.8019437749335107,-0.8019437749335107,-0.8019437749335107,-0.8019437749335107,-0.5535329399379433,-0.5535329399379433,-0.5535329399379433,-0.5535329399379433,-0.5535329399379433,-0.5535329399379433,-0.5535329399379433,-0.5535329399379433,-0.5535329399379433,-0.5535329399379433,-0.5535329399379433,-0.5535329399379433,-0.5535329399379433,-0.5535329399379433,-0.5535329399379433,-0.5535329399379433,-0.5535329399379433,-0.5535329399379433,-0.5535329399379433,-0.5535329399379433,-0.5535329399379433,-0.5535329399379433,-0.5329392453457447,-0.516206955064273,-0.4750197390292553,-0.42096137729942373,-0.3540319564494681,-0.2806671791888298,-0.2343315395057624,-0.16611501274379434,-0.0927501489084663,-0.010375716838430851,0.06813765721963652,0.11962180712544326,0.19556079621010639,0.2650643423093972,0.32941950804798315,0.37060676737034576,0.42337797990082005,0.4748620865192819,0.5250591305130763,0.5585237976507093,0.6061465865331339]","[1,0,0,0,0,0,0,0,0,0,0,0,0,0,0,0,0,0,0,0,0,0,0,0,0,0,0,0,0,0,0,0,0,0,0,0,0,0,0,1,1,1,1,1,1,1,1,1,1,1,1,1,1,1,1,1,1,1,1,1,1,1,1,1,1,1,1,1,1,1,1,1,1,1,1,1,1,1,1,1,1,1]","[0,0,0,0,0,0,0,0,0,0,0,0,0,0,0,0,0,0,0,0,0,0,0,0,0,0,0,0,0,0,0,0,0,0,0,0,0,0,0,0,0,0,0,0,0,0,0,0,0,0,0,0,0,0,0,0,0,0,0,0,0,0,0,0,0,0,0,0,0,0,0,0,0,0,0,0,0,0,0,0,0,0]","[0,0,0,0,0,0,0,0,0,0,0,0,0,0,0,0,0,0,0,0,0,0,0,0,0,0,0,0,0,0,0,0,0,0,0,0,0,0,0,0,0,0,0,0,0,0,0,0,0,0,0,0,0,0,0,0,0,0,0,0,0,0,0,0,0,0,0,0,0,0,0,0,0,0,0,0,0,0,0,0,0,0]","[0,0.010500000000376986,0.03169999999954598,0.04550000000017462,0.0678999999981329,0.08669999999983702,0.10729999999972506,0.13629999999830034,0.14939999999836573,0.1690999999991618,0.18869999999878928,0.21860000000015134,0.22950000000128057,0.2487000000000421,0.2674999999981651,0.28610000000111313,0.30679999999847496,0.3244000000012761,0.35280000000057044,0.3639000000002284,0.3816999999980908,0.4014999999999418,0.4213999999992666,0.450700000001234,0.46189999999836573,0.4798000000009779,0.49750000000125283,0.5266000000009967,0.538300000000163,0.5570999999981723,0.5750999999982582,0.601299999998389,0.6120000000009895,0.6398999999982493,0.6551000000000045,0.67380000000054,0.6932999999989988,0.7141000000009967,0.7331000000012295,0.761399999999469,0.791799999999057,0.8604999999988081,0.8980000000010477,0.9140999999980863,0.9464000000007218,0.9593999999997322,0.9854999999988081,1.0162999999993758,1.0358000000014158,1.0594999999994457,1.0722999999998137,1.0930000000007567,1.1149999999979627,1.1481999999995764,1.1594000000005167,1.1792999999998415,1.2082999999984168,1.2252000000007683,1.2426999999989334,1.2632999999987078,1.2839999999996508,1.3083999999980165,1.3277999999991152,1.3568999999988591,1.379000000000815,1.4019999999982815,1.425200000001439,1.448499999998603,1.4737999999997555,1.4953999999997905,1.5187000000005355,1.541799999999057,1.564299999998184,1.5865999999986684,1.6107000000011453,1.633399999998801,1.6555000000007567,1.6802999999999884,1.7023999999982493,1.725399999999297,1.7416999999986729,1.7731999999995764]",1.8311,,1.8311,1.8311,"[0,-0.6]",,1.8311,,,,0.9814,0.565,0.4164,0.8497,Rechaza,0,0,4,4,4,1,25,0,Train,Otro,5,3,25,10,0.8497,1.8311,"[-0.5,0.7]",,,,,,,,,,,,,,,,,,,,,,,,
