Mouse_Instructions.x,Mouse_Instructions.y,Mouse_Instructions.leftButton,Mouse_Instructions.midButton,Mouse_Instructions.rightButton,Mouse_Instructions.clicked_name,instruccioness.thisRepN,instruccioness.thisTrialN,instruccioness.thisN,instruccioness.thisIndex,instruccioness.ran,Instrucciones,Texto,Cedula,date,expName,psychopyVersion,OS,frameRate,partition_mouse.x,partition_mouse.y,partition_mouse.leftButton,partition_mouse.midButton,partition_mouse.rightButton,partition_mouse.clicked_name,rolotro,tracking_2.x,tracking_2.y,tracking_2.leftButton,tracking_2.midButton,tracking_2.rightButton,tracking_2.time,tracking_2.stopped,tracking_2.startedR,tracking_2.stoppedR,start_region_2.stopped,start_region_2.pos,Question_2.started,Question_2.stopped,O1.startedR,O1.stoppedR,O1_choiceR.pos,Total_Time,Resp_Time,Mov_Time,Time_to_start,Choice,liftedFinger,Trainingg.thisRepN,Trainingg.thisTrialN,Trainingg.thisN,Trainingg.thisIndex,Trainingg.ran,Ud,Otro,Type,Rol_otro,Otro_transf,Multiplicador,Ud_manos,fichas_base,fin_entrenamiento_mouse.x,fin_entrenamiento_mouse.y,fin_entrenamiento_mouse.leftButton,fin_entrenamiento_mouse.midButton,fin_entrenamiento_mouse.rightButton,fin_entrenamiento_mouse.clicked_name,mouse2.x,mouse2.y,mouse2.leftButton,mouse2.midButton,mouse2.rightButton,mouse2.clicked_name,O0.startedR,O0.stoppedR,O0_choiceR.pos,trials.thisRepN,trials.thisTrialN,trials.thisN,trials.thisIndex,trials.ran,trials_2.thisRepN,trials_2.thisTrialN,trials_2.thisN,trials_2.thisIndex,trials_2.ran,TextoR,Pregunta
0.788888889,-0.821627716,1,0,0,next_button,0,0,0,0,1,1,"Imagine que usted y otra persona reciben cada uno 10 fichas. Cada una vale $3.000 pesos. 

Oprima la flecha para continuar.",27305748,2021-04-21_12h37.46.554,DictadorBinary,2021.1.4,Linux armv7l,60.07449237,,,,,,,,,,,,,,,,,,,,,,,,,,,,,,,,,,,,,,,,,,,,,,,,,,,,,,,,,,,,,,,,,,,,,
0.818518575,-0.833890883,1,0,0,next_button,0,1,1,1,1,2,"La otra persona le puede transferir a usted de 0 a 10 fichas. Esas fichas se triplican una vez se transfieren a usted.

Oprima la flecha para continuar",27305748,2021-04-21_12h37.46.554,DictadorBinary,2021.1.4,Linux armv7l,60.07449237,,,,,,,,,,,,,,,,,,,,,,,,,,,,,,,,,,,,,,,,,,,,,,,,,,,,,,,,,,,,,,,,,,,,,
0.820370483,-0.785953177,1,0,0,next_button,0,2,2,2,1,3,"Por ejemplo, si la otra persona le transfiere 2 fichas, se convierten en 6 fichas (2x3). Así, usted tendría en sus manos 16 fichas en total.

Oprima la flecha para continuar",27305748,2021-04-21_12h37.46.554,DictadorBinary,2021.1.4,Linux armv7l,60.07449237,,,,,,,,,,,,,,,,,,,,,,,,,,,,,,,,,,,,,,,,,,,,,,,,,,,,,,,,,,,,,,,,,,,,,
0.811111111,-0.80713503,1,0,0,next_button,0,3,3,3,1,4,"Su tarea es dividir las fichas que quedan en sus manos entre los dos.

Oprima la flecha para continuar",27305748,2021-04-21_12h37.46.554,DictadorBinary,2021.1.4,Linux armv7l,60.07449237,,,,,,,,,,,,,,,,,,,,,,,,,,,,,,,,,,,,,,,,,,,,,,,,,,,,,,,,,,,,,,,,,,,,,
0.796296353,-0.798216345,1,0,0,next_button,0,4,4,4,1,5,"Ninguno sabe el nombre del otro. 

Oprima la flecha para continuar.",27305748,2021-04-21_12h37.46.554,DictadorBinary,2021.1.4,Linux armv7l,60.07449237,,,,,,,,,,,,,,,,,,,,,,,,,,,,,,,,,,,,,,,,,,,,,,,,,,,,,,,,,,,,,,,,,,,,,
0.818518575,-0.810479512,1,0,0,next_button,0,5,5,5,1,6,"En cada turno, muevase al cuadro inferior para que aparezcan las cantidades. Desplacese a la cantidad que le daria al OTRO. 

Oprima la flecha para continuar.",27305748,2021-04-21_12h37.46.554,DictadorBinary,2021.1.4,Linux armv7l,60.07449237,,,,,,,,,,,,,,,,,,,,,,,,,,,,,,,,,,,,,,,,,,,,,,,,,,,,,,,,,,,,,,,,,,,,,
0.807407464,-0.826945554,1,0,0,next_button,0,6,6,6,1,7,"Si esta en su celular o una tableta, desplace su dedo por la pantalla mientras escoge.

Oprima la flecha para continuar.",27305748,2021-04-21_12h37.46.554,DictadorBinary,2021.1.4,Linux armv7l,60.07449237,,,,,,,,,,,,,,,,,,,,,,,,,,,,,,,,,,,,,,,,,,,,,,,,,,,,,,,,,,,,,,,,,,,,,
0.833333333,-0.787456446,1,0,0,next_button,0,7,7,7,1,8,"Empecemos con un entrenamiento corto para familiarizarse. 

Oprima la flecha para continuar.",27305748,2021-04-21_12h37.46.554,DictadorBinary,2021.1.4,Linux armv7l,60.07449237,,,,,,,,,,,,,,,,,,,,,,,,,,,,,,,,,,,,,,,,,,,,,,,,,,,,,,,,,,,,,,,,,,,,,
,,,,,,,,,,,,,27305748,2021-04-21_12h37.46.554,DictadorBinary,2021.1.4,Linux armv7l,60.07449237,0.840740797,-0.800446067,1,0,0,partition_image,Otro,"[0.8407407972547744,0.8407407972547744,0.8407407972547744,0.8407407972547744,0.8407407972547744,0.8407407972547744,0.8407407972547744,0.8407407972547744,0.8407407972547744,0.8407407972547744,0.8407407972547744,0.8407407972547744,0.8407407972547744,0.8407407972547744,0.8407407972547744,0.8407407972547744,0.8407407972547744,0.8407407972547744,0.8407407972547744,0.8407407972547744,0.8407407972547744,0.8407407972547744,0.8407407972547744,0.8407407972547744,0.8407407972547744,0.8407407972547744,0.8407407972547744,0.8407407972547744,0.8407407972547744,0.8407407972547744,0.8407407972547744,0.8407407972547744,0.8407407972547744,0.8407407972547744,0.8407407972547744,0.8407407972547744,0.8407407972547744,0.8407407972547744,0.8407407972547744,0.8407407972547744,0.8407407972547744,0.8407407972547744,0.8407407972547744,0.8407407972547744,0.8407407972547744,0.8407407972547744,0.8407407972547744,0.8407407972547744,0.8407407972547744,0.8407407972547744,0.8407407972547744,0.8407407972547744,0.8407407972547744,0.8407407972547744,0.8407407972547744,0.8407407972547744,0.8407407972547744,0.8407407972547744,0.8407407972547744,0.8407407972547744,0.8407407972547744,0.8407407972547744,0.8407407972547744,0.8407407972547744,0.8407407972547744,0.8407407972547744,0.8407407972547744,0.8407407972547744,0.8407407972547744,0.8407407972547744,0.8407407972547744,0.8407407972547744,0.8407407972547744,0.8407407972547744,0.8407407972547744,0.8407407972547744,0.8407407972547744,0.8407407972547744,0.8407407972547744,0.8407407972547744,0.8407407972547744,0.8407407972547744,0.8407407972547744,0.8407407972547744,0.8407407972547744,0.8407407972547744,0.8407407972547744,0.8407407972547744,0.8407407972547744,0.8407407972547744,0.8407407972547744,0.8407407972547744,0.8407407972547744,0.8407407972547744,0.8407407972547744,0.8407407972547744,0.8407407972547744,0.8407407972547744,0.8407407972547744,0.8407407972547744,0.8407407972547744,0.8407407972547744,0.8407407972547744,0.8407407972547744,0.8407407972547744,0.8407407972547744,0.8407407972547744,0.8407407972547744,0.8407407972547744,0.8407407972547744,0.8407407972547744,0.8407407972547744,0.8407407972547744,0.8407407972547744,0.8407407972547744,0.029629686143663195,0.029629686143663195,0.020370398627387154,0.020370398627387154,0.014814843071831597,0.014814843071831597,0.014814843071831597,0.014814843071831597,0.014814843071831597,0.014814843071831597,0.014814843071831597,0.014814843071831597,0.014814843071831597,0.014814843071831597,0.014814843071831597,0.014814843071831597,0.014814843071831597,0.014814843071831597,0.014814843071831597,0.014814843071831597,0.014814843071831597,0.014814843071831597,0.014814843071831597,0.014814843071831597,0.014814843071831597,0.014814843071831597,0.014814843071831597,0.014814843071831597,0.014814843071831597,0.014814843071831597,0.014814843071831597,0.014814843071831597,0.014814843071831597,0.014814843071831597,0.014814843071831597,0.014814843071831597,0.014814843071831597,0.014814843071831597,0.014814843071831597,0.014814843071831597,0.014814843071831597,0.014814843071831597,0.014814843071831597,0.014814843071831597,0.014814843071831597,0.014814843071831597,0.014814843071831597,0.014814843071831597,0.014814843071831597,0.014814843071831597,0.014814843071831597,0.014814843071831597,0.014814843071831597,0.014814843071831597,0.014814843071831597,0.014814843071831597,0.014814843071831597,0.014814843071831597,0.014814843071831597,0.014814843071831597,0.014814843071831597,0.014814843071831597,0.014814843071831597,0.014814843071831597,0.014814843071831597,0.014814843071831597,0.014814843071831597,0.014814843071831597,0.014814843071831597,0.014814843071831597,0.014814843071831597,0.014814843071831597,0.014814843071831597,0.014814843071831597,0.014814843071831597,0.014814843071831597,0.014814843071831597,0.014814843071831597,0.014814843071831597,0.014814843071831597,0.014814843071831597,0.014814843071831597,0.014814843071831597,0.014814843071831597,0.014814843071831597,0.014814843071831597,0.014814843071831597,0.014814843071831597,0.014814843071831597,0.014814843071831597,0.014814843071831597,0.014814843071831597,0.014814843071831597,0.014814843071831597,0.014814843071831597,0.014814843071831597,0.014814843071831597,0.014814843071831597,0.014814843071831597,0.014814843071831597,0.014814843071831597,0.014814843071831597,0.014814843071831597,0.014814843071831597,0.014814843071831597,0.014814843071831597,0.014814843071831597,0.014814843071831597,0.014814843071831597,0.014814843071831597,0.014814843071831597,0.014814843071831597,0.014814843071831597,0.014814843071831597,0.014814843071831597,0.014814843071831597,0.014814843071831597,0.014814843071831597,0.014814843071831597,0.014814843071831597,0.014814843071831597,0.014814843071831597,0.014814843071831597,0.014814843071831597,0.014814843071831597,0.014814843071831597,0.014814843071831597,0.014814843071831597,0.014814843071831597,0.014814843071831597,0.014814843071831597,0.014814843071831597,0.014814843071831597,0.014814843071831597,0.014814843071831597,0.014814843071831597,0.014814843071831597,0.014814843071831597,0.014814843071831597,0.014814843071831597,0.014814843071831597,0.014814843071831597,0.014814843071831597,0.014814843071831597,0.014814843071831597,0.014814843071831597,0.014814843071831597,0.014814843071831597,0.014814843071831597,0.014814843071831597,0.014814843071831597,0.014814843071831597,0.014814843071831597,0.014814843071831597,0.014814843071831597,0.014814843071831597,0.014814843071831597,0.014814843071831597,0.014814843071831597,0.014814843071831597,0.014814843071831597,0.014814843071831597,0.014814843071831597,0.014814843071831597,0.014814843071831597,0.014814843071831597,0.014814843071831597,0.014814843071831597,0.014814843071831597,0.014814843071831597,0.014814843071831597,0.014814843071831597,0.014814843071831597,0.014814843071831597,0.014814843071831597,0.014814843071831597,0.014814843071831597,0.014814843071831597,0.014814843071831597,0.014814843071831597,0.014814843071831597,0.014814843071831597,0.014814843071831597,0.014814843071831597,0.014814843071831597,0.014814843071831597,0.014814843071831597,0.014814843071831597,0.014814843071831597,0.014814843071831597,0.014814843071831597,0.014814843071831597,0.014814843071831597,0.014814843071831597,0.014814843071831597,0.014814843071831597,0.014814843071831597,0.014814843071831597,0.014814843071831597,0.014814843071831597,0.014814843071831597,0.014814843071831597,0.014814843071831597,0.49629635281032985,0.49629635281032985,0.49629635281032985,0.49629635281032985,0.49629635281032985,0.49629635281032985,0.49629635281032985,0.49629635281032985,0.49629635281032985,0.49629635281032985,0.49629635281032985,0.49629635281032985,0.49629635281032985,0.49629635281032985,0.49629635281032985,0.49629635281032985,0.49629635281032985,0.49629635281032985,0.49629635281032985,0.49629635281032985,0.49629635281032985,0.49629635281032985,0.49629635281032985,0.49629635281032985,0.49629635281032985,0.49629635281032985,0.49629635281032985,0.49629635281032985,0.49629635281032985,0.49629635281032985,0.49629635281032985,0.49629635281032985,0.49629635281032985,0.49629635281032985,0.49629635281032985,0.49629635281032985,0.49629635281032985,0.49629635281032985,0.49629635281032985,0.49629635281032985,0.49629635281032985,0.49629635281032985,0.49629635281032985,0.49629635281032985,0.49629635281032985,0.49629635281032985,0.49629635281032985,0.49629635281032985,0.49629635281032985,0.49629635281032985,0.49629635281032985,0.49629635281032985,0.49629635281032985,0.49629635281032985,0.49629635281032985,0.49629635281032985,0.49629635281032985,0.49629635281032985,0.49629635281032985,0.49629635281032985,0.49629635281032985,0.49629635281032985,0.49629635281032985,0.49629635281032985,0.49629635281032985,0.49629635281032985,0.49629635281032985,0.49629635281032985,0.49629635281032985,0.49629635281032985,0.49629635281032985,0.49629635281032985,0.49629635281032985,0.49629635281032985,0.49629635281032985,0.49629635281032985,0.49629635281032985,0.49629635281032985,0.49629635281032985,0.49629635281032985,0.49629635281032985,0.49629635281032985,0.49629635281032985,0.49629635281032985,0.49629635281032985,0.49629635281032985,0.49629635281032985,0.49629635281032985,0.49629635281032985,0.49629635281032985,0.49629635281032985,0.49629635281032985,0.49629635281032985,0.49629635281032985,0.49629635281032985,0.49629635281032985,0.49629635281032985,0.49629635281032985,0.49629635281032985,0.49629635281032985,0.49629635281032985,0.49629635281032985,0.49629635281032985,0.49629635281032985,0.49629635281032985,0.49629635281032985,0.49629635281032985,0.49629635281032985,0.49629635281032985,0.49629635281032985,0.49629635281032985,0.49629635281032985,0.49629635281032985,0.49629635281032985,0.49629635281032985,0.49629635281032985,0.49629635281032985,0.49629635281032985,0.49629635281032985,0.49629635281032985,0.49629635281032985,0.49629635281032985,0.49629635281032985,0.49629635281032985,0.49629635281032985,0.49629635281032985,0.49629635281032985,0.49629635281032985,0.49629635281032985,0.49629635281032985,0.49629635281032985,0.49629635281032985,0.49629635281032985,0.49629635281032985,0.49629635281032985,0.49629635281032985,0.49629635281032985,0.49629635281032985,0.49629635281032985,0.49629635281032985,0.49629635281032985,0.49629635281032985,0.49629635281032985,0.49629635281032985,0.49629635281032985,0.49629635281032985,0.49629635281032985,0.49629635281032985,0.49629635281032985,0.49629635281032985,0.49629635281032985,0.49629635281032985,0.49629635281032985,0.49629635281032985,0.49629635281032985,0.49629635281032985,0.49629635281032985,0.49629635281032985,0.49629635281032985,0.49629635281032985,0.49629635281032985,0.49629635281032985,0.49629635281032985,0.49629635281032985,0.49629635281032985,0.49629635281032985,0.49629635281032985,0.49629635281032985,0.49629635281032985,0.49629635281032985,0.49629635281032985,0.49629635281032985,0.49629635281032985,0.49629635281032985,0.49629635281032985,0.49629635281032985,0.49629635281032985,0.49629635281032985,0.49629635281032985,0.49629635281032985,0.49629635281032985,0.49629635281032985,0.49629635281032985,0.49629635281032985,0.49629635281032985,0.49629635281032985,0.49629635281032985,0.49629635281032985,0.49629635281032985,0.49629635281032985,0.49629635281032985,0.49629635281032985,0.49629635281032985,0.49629635281032985,0.49629635281032985,0.49629635281032985,0.49629635281032985,0.49629635281032985,0.49629635281032985,0.49629635281032985,0.49629635281032985,0.49629635281032985,0.49629635281032985,0.49629635281032985,0.49629635281032985,0.49629635281032985,0.49629635281032985,0.49629635281032985,0.49629635281032985,0.49629635281032985,0.49629635281032985,0.49629635281032985,0.49629635281032985,0.49629635281032985,0.49629635281032985,0.49629635281032985,0.49629635281032985,0.49629635281032985,0.49629635281032985,0.49629635281032985,0.49629635281032985,0.49629635281032985,0.49629635281032985,0.49629635281032985,0.49629635281032985,0.49629635281032985,0.49629635281032985,0.49629635281032985,0.49629635281032985,0.49629635281032985,0.49629635281032985,0.49629635281032985,0.49629635281032985,0.49629635281032985,0.49629635281032985,0.49629635281032985,0.49629635281032985,0.49629635281032985,0.49629635281032985,0.49629635281032985,0.49629635281032985,0.49629635281032985,0.49629635281032985,0.49629635281032985,0.49629635281032985,0.49629635281032985,0.49629635281032985,0.49629635281032985,0.49629635281032985,0.49629635281032985,0.49629635281032985,0.49629635281032985,0.49629635281032985,0.49629635281032985,0.49629635281032985,0.49629635281032985,0.49629635281032985,0.49629635281032985,0.49629635281032985,0.49629635281032985,0.49629635281032985,0.49629635281032985,0.49629635281032985,0.49629635281032985,0.49629635281032985,0.49629635281032985,0.49629635281032985,0.49629635281032985,0.49629635281032985,0.49629635281032985,0.24259262084960936,0.24259262084960936,0.24259262084960936,0.24259262084960936,0.24259262084960936,0.24259262084960936,0.24259262084960936,0.24259262084960936,0.24259262084960936,0.24259262084960936,0.24259262084960936,0.24259262084960936,0.24259262084960936,0.24259262084960936,0.24259262084960936,0.24259262084960936,0.24259262084960936,0.24259262084960936,0.24259262084960936,0.24259262084960936,0.24259262084960936,0.24259262084960936,0.24259262084960936,0.24259262084960936,0.24259262084960936,0.24259262084960936,0.24259262084960936,0.24259262084960936,0.24259262084960936,0.24259262084960936,0.24259262084960936,0.24259262084960936]","[-0.8004460669680183,-0.8004460669680183,-0.8004460669680183,-0.8004460669680183,-0.8004460669680183,-0.8004460669680183,-0.8004460669680183,-0.8004460669680183,-0.8004460669680183,-0.8004460669680183,-0.8004460669680183,-0.8004460669680183,-0.8004460669680183,-0.8004460669680183,-0.8004460669680183,-0.8004460669680183,-0.8004460669680183,-0.8004460669680183,-0.8004460669680183,-0.8004460669680183,-0.8004460669680183,-0.8004460669680183,-0.8004460669680183,-0.8004460669680183,-0.8004460669680183,-0.8004460669680183,-0.8004460669680183,-0.8004460669680183,-0.8004460669680183,-0.8004460669680183,-0.8004460669680183,-0.8004460669680183,-0.8004460669680183,-0.8004460669680183,-0.8004460669680183,-0.8004460669680183,-0.8004460669680183,-0.8004460669680183,-0.8004460669680183,-0.8004460669680183,-0.8004460669680183,-0.8004460669680183,-0.8004460669680183,-0.8004460669680183,-0.8004460669680183,-0.8004460669680183,-0.8004460669680183,-0.8004460669680183,-0.8004460669680183,-0.8004460669680183,-0.8004460669680183,-0.8004460669680183,-0.8004460669680183,-0.8004460669680183,-0.8004460669680183,-0.8004460669680183,-0.8004460669680183,-0.8004460669680183,-0.8004460669680183,-0.8004460669680183,-0.8004460669680183,-0.8004460669680183,-0.8004460669680183,-0.8004460669680183,-0.8004460669680183,-0.8004460669680183,-0.8004460669680183,-0.8004460669680183,-0.8004460669680183,-0.8004460669680183,-0.8004460669680183,-0.8004460669680183,-0.8004460669680183,-0.8004460669680183,-0.8004460669680183,-0.8004460669680183,-0.8004460669680183,-0.8004460669680183,-0.8004460669680183,-0.8004460669680183,-0.8004460669680183,-0.8004460669680183,-0.8004460669680183,-0.8004460669680183,-0.8004460669680183,-0.8004460669680183,-0.8004460669680183,-0.8004460669680183,-0.8004460669680183,-0.8004460669680183,-0.8004460669680183,-0.8004460669680183,-0.8004460669680183,-0.8004460669680183,-0.8004460669680183,-0.8004460669680183,-0.8004460669680183,-0.8004460669680183,-0.8004460669680183,-0.8004460669680183,-0.8004460669680183,-0.8004460669680183,-0.8004460669680183,-0.8004460669680183,-0.8004460669680183,-0.8004460669680183,-0.8004460669680183,-0.8004460669680183,-0.8004460669680183,-0.8004460669680183,-0.8004460669680183,-0.8004460669680183,-0.8004460669680183,-0.8004460669680183,-0.8004460669680183,-0.6265329214242789,-0.6265329214242789,-0.6265329214242789,-0.6265329214242789,-0.6254180602006689,-0.6254180602006689,-0.6254180602006689,-0.6254180602006689,-0.6254180602006689,-0.6254180602006689,-0.6254180602006689,-0.6254180602006689,-0.6254180602006689,-0.6254180602006689,-0.6254180602006689,-0.6254180602006689,-0.6254180602006689,-0.6254180602006689,-0.6254180602006689,-0.6254180602006689,-0.6254180602006689,-0.6254180602006689,-0.6254180602006689,-0.6254180602006689,-0.6254180602006689,-0.6254180602006689,-0.6254180602006689,-0.6254180602006689,-0.6254180602006689,-0.6254180602006689,-0.6254180602006689,-0.6254180602006689,-0.6254180602006689,-0.6254180602006689,-0.6254180602006689,-0.6254180602006689,-0.6254180602006689,-0.6254180602006689,-0.6254180602006689,-0.6254180602006689,-0.6254180602006689,-0.6254180602006689,-0.6254180602006689,-0.6254180602006689,-0.6254180602006689,-0.6254180602006689,-0.6254180602006689,-0.6254180602006689,-0.6254180602006689,-0.6254180602006689,-0.6254180602006689,-0.6254180602006689,-0.6254180602006689,-0.6254180602006689,-0.6254180602006689,-0.6254180602006689,-0.6254180602006689,-0.6254180602006689,-0.6254180602006689,-0.6254180602006689,-0.6254180602006689,-0.6254180602006689,-0.6254180602006689,-0.6254180602006689,-0.6254180602006689,-0.6254180602006689,-0.6254180602006689,-0.6254180602006689,-0.6254180602006689,-0.6254180602006689,-0.6254180602006689,-0.6254180602006689,-0.6254180602006689,-0.6254180602006689,-0.6254180602006689,-0.6254180602006689,-0.6254180602006689,-0.6254180602006689,-0.6254180602006689,-0.6254180602006689,-0.6254180602006689,-0.6254180602006689,-0.6254180602006689,-0.6254180602006689,-0.6254180602006689,-0.6254180602006689,-0.6254180602006689,-0.6254180602006689,-0.6254180602006689,-0.6254180602006689,-0.6254180602006689,-0.6254180602006689,-0.6254180602006689,-0.6254180602006689,-0.6254180602006689,-0.6254180602006689,-0.6254180602006689,-0.6254180602006689,-0.6254180602006689,-0.6254180602006689,-0.6254180602006689,-0.6254180602006689,-0.6254180602006689,-0.6254180602006689,-0.6254180602006689,-0.6254180602006689,-0.6254180602006689,-0.6254180602006689,-0.6254180602006689,-0.6254180602006689,-0.6254180602006689,-0.6254180602006689,-0.6254180602006689,-0.6254180602006689,-0.6254180602006689,-0.6254180602006689,-0.6254180602006689,-0.6254180602006689,-0.6254180602006689,-0.6254180602006689,-0.6254180602006689,-0.6254180602006689,-0.6254180602006689,-0.6254180602006689,-0.6254180602006689,-0.6254180602006689,-0.6254180602006689,-0.6254180602006689,-0.6254180602006689,-0.6254180602006689,-0.6254180602006689,-0.6254180602006689,-0.6254180602006689,-0.6254180602006689,-0.6254180602006689,-0.6254180602006689,-0.6254180602006689,-0.6254180602006689,-0.6254180602006689,-0.6254180602006689,-0.6254180602006689,-0.6254180602006689,-0.6254180602006689,-0.6254180602006689,-0.6254180602006689,-0.6254180602006689,-0.6254180602006689,-0.6254180602006689,-0.6254180602006689,-0.6254180602006689,-0.6254180602006689,-0.6254180602006689,-0.6254180602006689,-0.6254180602006689,-0.6254180602006689,-0.6254180602006689,-0.6254180602006689,-0.6254180602006689,-0.6254180602006689,-0.6254180602006689,-0.6254180602006689,-0.6254180602006689,-0.6254180602006689,-0.6254180602006689,-0.6254180602006689,-0.6254180602006689,-0.6254180602006689,-0.6254180602006689,-0.6254180602006689,-0.6254180602006689,-0.6254180602006689,-0.6254180602006689,-0.6254180602006689,-0.6254180602006689,-0.6254180602006689,-0.6254180602006689,-0.6254180602006689,-0.6254180602006689,-0.6254180602006689,-0.6254180602006689,-0.6254180602006689,-0.6254180602006689,-0.6254180602006689,-0.6254180602006689,-0.6254180602006689,-0.6254180602006689,-0.6254180602006689,-0.6254180602006689,-0.6254180602006689,-0.6254180602006689,-0.6254180602006689,-0.6254180602006689,-0.6254180602006689,-0.6254180602006689,-0.6254180602006689,-0.6254180602006689,-0.6254180602006689,-0.6254180602006689,-0.6254180602006689,-0.6254180602006689,-0.6254180602006689,-0.6254180602006689,-0.6254180602006689,0.6387959866220736,0.6387959866220736,0.6387959866220736,0.6387959866220736,0.6387959866220736,0.6387959866220736,0.6387959866220736,0.6387959866220736,0.6387959866220736,0.6387959866220736,0.6387959866220736,0.6387959866220736,0.6387959866220736,0.6387959866220736,0.6387959866220736,0.6387959866220736,0.6387959866220736,0.6387959866220736,0.6387959866220736,0.6387959866220736,0.6387959866220736,0.6387959866220736,0.6387959866220736,0.6387959866220736,0.6387959866220736,0.6387959866220736,0.6387959866220736,0.6387959866220736,0.6387959866220736,0.6387959866220736,0.6387959866220736,0.6387959866220736,0.6387959866220736,0.6387959866220736,0.6387959866220736,0.6387959866220736,0.6387959866220736,0.6387959866220736,0.6387959866220736,0.6387959866220736,0.6387959866220736,0.6387959866220736,0.6387959866220736,0.6387959866220736,0.6387959866220736,0.6387959866220736,0.6387959866220736,0.6387959866220736,0.6387959866220736,0.6387959866220736,0.6387959866220736,0.6387959866220736,0.6387959866220736,0.6387959866220736,0.6387959866220736,0.6387959866220736,0.6387959866220736,0.6387959866220736,0.6387959866220736,0.6387959866220736,0.6387959866220736,0.6387959866220736,0.6387959866220736,0.6387959866220736,0.6387959866220736,0.6387959866220736,0.6387959866220736,0.6387959866220736,0.6387959866220736,0.6387959866220736,0.6387959866220736,0.6387959866220736,0.6387959866220736,0.6387959866220736,0.6387959866220736,0.6387959866220736,0.6387959866220736,0.6387959866220736,0.6387959866220736,0.6387959866220736,0.6387959866220736,0.6387959866220736,0.6387959866220736,0.6387959866220736,0.6387959866220736,0.6387959866220736,0.6387959866220736,0.6387959866220736,0.6387959866220736,0.6387959866220736,0.6387959866220736,0.6387959866220736,0.6387959866220736,0.6387959866220736,0.6387959866220736,0.6387959866220736,0.6387959866220736,0.6387959866220736,0.6387959866220736,0.6387959866220736,0.6387959866220736,0.6387959866220736,0.6387959866220736,0.6387959866220736,0.6387959866220736,0.6387959866220736,0.6387959866220736,0.6387959866220736,0.6387959866220736,0.6387959866220736,0.6387959866220736,0.6387959866220736,0.6387959866220736,0.6387959866220736,0.6387959866220736,0.6387959866220736,0.6387959866220736,0.6387959866220736,0.6387959866220736,0.6387959866220736,0.6387959866220736,0.6387959866220736,0.6387959866220736,0.6387959866220736,0.6387959866220736,0.6387959866220736,0.6387959866220736,0.6387959866220736,0.6387959866220736,0.6387959866220736,0.6387959866220736,0.6387959866220736,0.6387959866220736,0.6387959866220736,0.6387959866220736,0.6387959866220736,0.6387959866220736,0.6387959866220736,0.6387959866220736,0.6387959866220736,0.6387959866220736,0.6387959866220736,0.6387959866220736,0.6387959866220736,0.6387959866220736,0.6387959866220736,0.6387959866220736,0.6387959866220736,0.6387959866220736,0.6387959866220736,0.6387959866220736,0.6387959866220736,0.6387959866220736,0.6387959866220736,0.6387959866220736,0.6387959866220736,0.6387959866220736,0.6387959866220736,0.6387959866220736,0.6387959866220736,0.6387959866220736,0.6387959866220736,0.6387959866220736,0.6387959866220736,0.6387959866220736,0.6387959866220736,0.6387959866220736,0.6387959866220736,0.6387959866220736,0.6387959866220736,0.6387959866220736,0.6387959866220736,0.6387959866220736,0.6387959866220736,0.6387959866220736,0.6387959866220736,0.6387959866220736,0.6387959866220736,0.6387959866220736,0.6387959866220736,0.6387959866220736,0.6387959866220736,0.6387959866220736,0.6387959866220736,0.6387959866220736,0.6387959866220736,0.6387959866220736,0.6387959866220736,0.6387959866220736,0.6387959866220736,0.6387959866220736,0.6387959866220736,0.6387959866220736,0.6387959866220736,0.6387959866220736,0.6387959866220736,0.6387959866220736,0.6387959866220736,0.6387959866220736,0.6387959866220736,0.6387959866220736,0.6387959866220736,0.6387959866220736,0.6387959866220736,0.6387959866220736,0.6387959866220736,0.6387959866220736,0.6387959866220736,0.6387959866220736,0.6387959866220736,0.6387959866220736,0.6387959866220736,0.6387959866220736,0.6387959866220736,0.6387959866220736,0.6387959866220736,0.6387959866220736,0.6387959866220736,0.6387959866220736,0.6387959866220736,0.6387959866220736,0.6387959866220736,0.6387959866220736,0.6387959866220736,0.6387959866220736,0.6387959866220736,0.6387959866220736,0.6387959866220736,0.6387959866220736,0.6387959866220736,0.6387959866220736,0.6387959866220736,0.6387959866220736,0.6387959866220736,0.6387959866220736,0.6387959866220736,0.6387959866220736,0.6387959866220736,0.6387959866220736,0.6387959866220736,0.6387959866220736,0.6387959866220736,0.6387959866220736,0.6387959866220736,0.6387959866220736,0.6387959866220736,0.6387959866220736,0.6387959866220736,0.6387959866220736,0.6387959866220736,0.6387959866220736,0.6387959866220736,0.6387959866220736,0.6387959866220736,0.6387959866220736,0.6387959866220736,0.6387959866220736,0.6387959866220736,0.6387959866220736,0.6387959866220736,0.6387959866220736,0.6387959866220736,0.6387959866220736,0.6387959866220736,0.6387959866220736,0.6387959866220736,0.6387959866220736,0.6387959866220736,0.6387959866220736,0.6387959866220736,-0.6833891087152487,-0.6833891087152487,-0.6833891087152487,-0.6833891087152487,-0.6833891087152487,-0.6833891087152487,-0.6833891087152487,-0.6833891087152487,-0.6833891087152487,-0.6833891087152487,-0.6833891087152487,-0.6833891087152487,-0.6833891087152487,-0.6833891087152487,-0.6833891087152487,-0.6833891087152487,-0.6833891087152487,-0.6833891087152487,-0.6833891087152487,-0.6833891087152487,-0.6833891087152487,-0.6833891087152487,-0.6833891087152487,-0.6833891087152487,-0.6833891087152487,-0.6833891087152487,-0.6833891087152487,-0.6833891087152487,-0.6833891087152487,-0.6833891087152487,-0.7537747160482905,-0.7537747160482905]","[1,1,0,0,0,0,0,0,0,0,0,0,0,0,0,0,0,0,0,0,0,0,0,0,0,0,0,0,0,0,0,0,0,0,0,0,0,0,0,0,0,0,0,0,0,0,0,0,0,0,0,0,0,0,0,0,0,0,0,0,0,0,0,0,0,0,0,0,0,0,0,0,0,0,0,0,0,0,0,0,0,0,0,0,0,0,0,0,0,0,0,0,0,0,0,0,0,0,0,0,0,0,0,0,0,0,0,0,0,0,0,0,0,0,0,1,1,1,1,1,0,0,0,0,0,0,0,0,0,0,0,0,0,0,0,0,0,0,0,0,0,0,0,0,0,0,0,0,0,0,0,0,0,0,0,0,0,0,0,0,0,0,0,0,0,0,0,0,0,0,0,0,0,0,0,0,0,0,0,0,0,0,0,0,0,0,0,0,0,0,0,0,0,0,0,0,0,0,0,0,0,0,0,0,0,0,0,0,0,0,0,0,0,0,0,0,0,0,0,0,0,0,0,0,0,0,0,0,0,0,0,0,0,0,0,0,0,0,0,0,0,0,0,0,0,0,0,0,0,0,0,0,0,0,0,0,0,0,0,0,0,0,0,0,0,0,0,0,0,0,0,0,0,0,0,0,0,0,0,0,0,0,0,0,0,0,0,0,0,0,0,0,0,0,0,0,0,0,0,0,0,0,0,0,0,0,0,0,0,0,0,0,0,0,0,0,0,0,1,0,0,0,0,0,0,0,0,0,0,0,0,0,0,0,0,0,0,0,0,0,0,0,0,0,0,0,0,0,0,0,0,0,0,0,0,0,0,0,0,0,0,0,0,0,0,0,0,0,0,0,0,0,0,0,0,0,0,0,0,0,0,0,0,0,0,0,0,0,0,0,0,0,0,0,0,0,0,0,0,0,0,0,0,0,0,0,0,0,0,0,0,0,0,0,0,0,0,0,0,0,0,0,0,0,0,0,0,0,0,0,0,0,0,0,0,0,0,0,0,0,0,0,0,0,0,0,0,0,0,0,0,0,0,0,0,0,0,0,0,0,0,0,0,0,0,0,0,0,0,0,0,0,0,0,0,0,0,0,0,0,0,0,0,0,0,0,0,0,0,0,0,0,0,0,0,0,0,0,0,0,0,0,0,0,0,0,0,0,0,0,0,0,0,0,0,0,0,0,0,0,0,0,0,0,0,0,0,0,0,0,0,0,0,0,0,0,0,0,0,0,0,0,0,0,0,0,0,0,0,0,0,0,0,0,0,0,0,0,0,0,0,0,0,0,0,0,0,0,0,0,0,0,0,0,0,0,0,0,0,0,0,0,0,0,0,0,0,0,1,1,1,1,1,0,0,0,0,0,0,0,0,0,0,0,0,0,0,0,0,0,0,0,0,0,0,0,0,0,0,0]","[0,0,0,0,0,0,0,0,0,0,0,0,0,0,0,0,0,0,0,0,0,0,0,0,0,0,0,0,0,0,0,0,0,0,0,0,0,0,0,0,0,0,0,0,0,0,0,0,0,0,0,0,0,0,0,0,0,0,0,0,0,0,0,0,0,0,0,0,0,0,0,0,0,0,0,0,0,0,0,0,0,0,0,0,0,0,0,0,0,0,0,0,0,0,0,0,0,0,0,0,0,0,0,0,0,0,0,0,0,0,0,0,0,0,0,0,0,0,0,0,0,0,0,0,0,0,0,0,0,0,0,0,0,0,0,0,0,0,0,0,0,0,0,0,0,0,0,0,0,0,0,0,0,0,0,0,0,0,0,0,0,0,0,0,0,0,0,0,0,0,0,0,0,0,0,0,0,0,0,0,0,0,0,0,0,0,0,0,0,0,0,0,0,0,0,0,0,0,0,0,0,0,0,0,0,0,0,0,0,0,0,0,0,0,0,0,0,0,0,0,0,0,0,0,0,0,0,0,0,0,0,0,0,0,0,0,0,0,0,0,0,0,0,0,0,0,0,0,0,0,0,0,0,0,0,0,0,0,0,0,0,0,0,0,0,0,0,0,0,0,0,0,0,0,0,0,0,0,0,0,0,0,0,0,0,0,0,0,0,0,0,0,0,0,0,0,0,0,0,0,0,0,0,0,0,0,0,0,0,0,0,0,0,0,0,0,0,0,0,0,0,0,0,0,0,0,0,0,0,0,0,0,0,0,0,0,0,0,0,0,0,0,0,0,0,0,0,0,0,0,0,0,0,0,0,0,0,0,0,0,0,0,0,0,0,0,0,0,0,0,0,0,0,0,0,0,0,0,0,0,0,0,0,0,0,0,0,0,0,0,0,0,0,0,0,0,0,0,0,0,0,0,0,0,0,0,0,0,0,0,0,0,0,0,0,0,0,0,0,0,0,0,0,0,0,0,0,0,0,0,0,0,0,0,0,0,0,0,0,0,0,0,0,0,0,0,0,0,0,0,0,0,0,0,0,0,0,0,0,0,0,0,0,0,0,0,0,0,0,0,0,0,0,0,0,0,0,0,0,0,0,0,0,0,0,0,0,0,0,0,0,0,0,0,0,0,0,0,0,0,0,0,0,0,0,0,0,0,0,0,0,0,0,0,0,0,0,0,0,0,0,0,0,0,0,0,0,0,0,0,0,0,0,0,0,0,0,0,0,0,0,0,0,0,0,0,0,0,0,0,0,0,0,0,0,0,0,0,0,0,0,0,0,0,0,0,0,0,0,0,0,0,0,0,0,0,0,0,0,0,0,0,0,0,0,0,0,0,0,0,0,0,0,0,0,0,0,0,0,0,0,0,0,0,0,0,0,0,0,0,0,0,0,0,0,0,0,0,0,0]","[0,0,0,0,0,0,0,0,0,0,0,0,0,0,0,0,0,0,0,0,0,0,0,0,0,0,0,0,0,0,0,0,0,0,0,0,0,0,0,0,0,0,0,0,0,0,0,0,0,0,0,0,0,0,0,0,0,0,0,0,0,0,0,0,0,0,0,0,0,0,0,0,0,0,0,0,0,0,0,0,0,0,0,0,0,0,0,0,0,0,0,0,0,0,0,0,0,0,0,0,0,0,0,0,0,0,0,0,0,0,0,0,0,0,0,0,0,0,0,0,0,0,0,0,0,0,0,0,0,0,0,0,0,0,0,0,0,0,0,0,0,0,0,0,0,0,0,0,0,0,0,0,0,0,0,0,0,0,0,0,0,0,0,0,0,0,0,0,0,0,0,0,0,0,0,0,0,0,0,0,0,0,0,0,0,0,0,0,0,0,0,0,0,0,0,0,0,0,0,0,0,0,0,0,0,0,0,0,0,0,0,0,0,0,0,0,0,0,0,0,0,0,0,0,0,0,0,0,0,0,0,0,0,0,0,0,0,0,0,0,0,0,0,0,0,0,0,0,0,0,0,0,0,0,0,0,0,0,0,0,0,0,0,0,0,0,0,0,0,0,0,0,0,0,0,0,0,0,0,0,0,0,0,0,0,0,0,0,0,0,0,0,0,0,0,0,0,0,0,0,0,0,0,0,0,0,0,0,0,0,0,0,0,0,0,0,0,0,0,0,0,0,0,0,0,0,0,0,0,0,0,0,0,0,0,0,0,0,0,0,0,0,0,0,0,0,0,0,0,0,0,0,0,0,0,0,0,0,0,0,0,0,0,0,0,0,0,0,0,0,0,0,0,0,0,0,0,0,0,0,0,0,0,0,0,0,0,0,0,0,0,0,0,0,0,0,0,0,0,0,0,0,0,0,0,0,0,0,0,0,0,0,0,0,0,0,0,0,0,0,0,0,0,0,0,0,0,0,0,0,0,0,0,0,0,0,0,0,0,0,0,0,0,0,0,0,0,0,0,0,0,0,0,0,0,0,0,0,0,0,0,0,0,0,0,0,0,0,0,0,0,0,0,0,0,0,0,0,0,0,0,0,0,0,0,0,0,0,0,0,0,0,0,0,0,0,0,0,0,0,0,0,0,0,0,0,0,0,0,0,0,0,0,0,0,0,0,0,0,0,0,0,0,0,0,0,0,0,0,0,0,0,0,0,0,0,0,0,0,0,0,0,0,0,0,0,0,0,0,0,0,0,0,0,0,0,0,0,0,0,0,0,0,0,0,0,0,0,0,0,0,0,0,0,0,0,0,0,0,0,0,0,0,0,0,0,0,0,0,0,0,0,0,0,0,0,0,0,0,0,0,0,0,0,0,0,0,0,0,0,0,0,0,0,0,0,0,0,0,0]","[0.00020000000222353265,0.017700000000331784,0.03170000000318396,0.043900000000576256,0.060800000002927845,0.0771999999997206,0.09380000000237487,0.1103000000002794,0.1275000000023283,0.1437000000005355,0.1614000000008673,0.17740000000048894,0.19420000000172877,0.21020000000135042,0.22750000000087311,0.24360000000160653,0.2614000000030501,0.2767999999996391,0.29390000000057626,0.31010000000242144,0.32730000000083237,0.34350000000267755,0.36050000000250293,0.37700000000040745,0.39350000000194996,0.41010000000096625,0.42690000000220607,0.44350000000122236,0.46039999999993597,0.4765000000006694,0.4938000000001921,0.5099000000009255,0.5264999999999418,0.5436000000008789,0.5608000000029278,0.5769000000000233,0.5940000000009604,0.6107000000010885,0.626299999999901,0.6432999999997264,0.6604000000006636,0.6768000000010943,0.6936000000023341,0.7109000000018568,0.7272000000011758,0.743400000003021,0.7602000000006228,0.7772000000004482,0.7929000000003725,0.8100000000013097,0.8262000000031549,0.843300000000454,0.8597000000008848,0.8762000000024273,0.8930000000000291,0.9095000000015716,0.9261000000005879,0.9426999999996042,0.959500000000844,0.9759000000012747,0.9924000000028173,1.0094000000026426,1.026000000001659,1.043100000002596,1.059400000001915,1.077000000001135,1.0923000000002503,1.1097000000008848,1.1258000000016182,1.1436000000030617,1.1589999999996508,1.1763000000028114,1.192800000000716,1.2093000000022585,1.2257000000026892,1.2427999999999884,1.2595000000001164,1.2757000000019616,1.293100000002596,1.309900000000198,1.3255000000026484,1.342400000001362,1.3594000000011874,1.37590000000273,1.392200000002049,1.4095000000015716,1.4258000000008906,1.4423999999999069,1.4589000000014494,1.4756000000015774,1.4919000000008964,1.509200000000419,1.5253000000011525,1.5419000000001688,1.5591999999996915,1.575700000001234,1.5925000000024738,1.6091000000014901,1.6257000000005064,1.6423000000031607,1.6592000000018743,1.6750000000029104,1.6931000000004133,1.7093000000022585,1.7255000000004657,1.7422000000005937,1.7589000000007218,1.7752000000000407,1.793600000000879,1.8091000000022177,1.8254000000015367,1.842899999999645,1.858299999999872,1.876299999999901,1.893000000000029,1.908900000002177,1.926500000001397,1.995200000001205,2.0100000000020373,2.025900000000547,2.0420000000012806,2.0582000000031258,2.0745999999999185,2.091200000002573,2.108299999999872,2.12420000000202,2.1415000000015425,2.1576999999997497,2.174699999999575,2.1916000000019267,2.208200000000943,2.2256000000015774,2.24120000000039,2.257900000000518,2.2744000000020606,2.291400000001886,2.308000000000902,2.324400000001333,2.341100000001461,2.3580000000001746,2.374600000002829,2.3914000000004307,2.4076999999997497,2.424300000002404,2.441399999999703,2.4580000000023574,2.4743000000016764,2.490700000002107,2.5081000000027416,2.5240000000012515,2.541800000002695,2.557200000002922,2.5742000000027474,2.5913000000000466,2.6072000000021944,2.625500000001921,2.6416000000026543,2.6570000000028813,2.6745000000009895,2.6907000000028347,2.706900000001042,2.724100000003091,2.7413000000015018,2.7576000000008207,2.7740000000012515,2.7908000000024913,2.8074000000015076,2.82390000000305,2.8408000000017637,2.8571000000010827,2.8739999999997963,2.8909999999996217,2.908400000000256,2.9237000000030093,2.9404000000031374,2.9574000000029628,2.9737000000022817,2.9910000000018044,3.0069000000003143,3.0235000000029686,3.0402000000030966,3.0568999999995867,3.0734000000011292,3.091200000002573,3.10740000000078,3.1235000000015134,3.1403000000027532,3.156600000002072,3.173399999999674,3.190500000000611,3.2066000000013446,3.22360000000117,3.2406000000009954,3.257000000001426,3.273300000000745,3.2898999999997613,3.306800000002113,3.3229000000028464,3.339700000000448,3.3563000000031025,3.3729999999995925,3.389900000001944,3.406300000002375,3.4227000000028056,3.4398000000001048,3.4579000000012456,3.4737000000022817,3.490700000002107,3.506500000003143,3.524199999999837,3.5398999999997613,3.5565000000024156,3.5732000000025437,3.590200000002369,3.6066000000028,3.6231000000007043,3.639500000001135,3.6560000000026776,3.6727000000028056,3.6894000000029337,3.7057999999997264,3.72280000000319,3.7406000000009954,3.7563000000009197,3.773300000000745,3.7894000000014785,3.806800000002113,3.8229000000028464,3.840200000002369,3.856100000000879,3.8726000000024214,3.889000000002852,3.9057000000029802,3.9227000000028056,3.9398000000001048,3.95600000000195,3.973500000000058,3.9891000000025088,4.005900000000111,4.02270000000135,4.03950000000259,4.055800000001909,4.072700000000623,4.088999999999942,4.105800000001182,4.122000000003027,4.139100000000326,4.156200000001263,4.172099999999773,4.188799999999901,4.205500000000029,4.222600000000966,4.239000000001397,4.256100000002334,4.272400000001653,4.28950000000259,4.305200000002515,4.322000000000116,4.338999999999942,4.355100000000675,4.372600000002421,4.388600000002043,4.405800000000454,4.422099999999773,4.439600000001519,4.4553000000014435,4.4724999999998545,4.4891999999999825,4.505400000001828,4.522100000001956,4.538800000002084,4.560100000002421,4.572100000001228,4.588600000002771,4.605800000001182,4.621600000002218,4.639200000001438,4.655000000002474,4.672000000002299,4.688100000003033,4.704700000002049,4.721400000002177,4.738100000002305,4.755000000001019,4.771700000001147,4.78780000000188,4.804700000000594,4.82129999999961,4.838300000003073,4.854600000002392,4.87130000000252,4.888100000000122,4.904600000001665,4.921700000002602,4.937799999999697,4.954400000002352,4.97110000000248,4.987800000002608,5.004400000001624,5.02100000000064,5.037700000000768,5.054400000000896,5.0711000000010245,5.087600000002567,5.104300000002695,5.121399999999994,5.137700000002951,5.154099999999744,5.171300000001793,5.1875,5.204200000000128,5.22110000000248,5.23750000000291,5.254000000000815,5.270800000002055,5.287299999999959,5.304000000000087,5.322100000001228,5.338999999999942,5.376400000001013,5.386800000000221,5.403800000000047,5.420799999999872,5.437000000001717,5.453499999999622,5.47019999999975,5.48750000000291,5.504400000001624,5.520599999999831,5.5372000000024855,5.554200000002311,5.570400000000518,5.58730000000287,5.604000000002998,5.620500000000902,5.637700000002951,5.654099999999744,5.670500000000175,5.687000000001717,5.703900000000431,5.721300000001065,5.737100000002101,5.753899999999703,5.770599999999831,5.787599999999657,5.804100000001199,5.820600000002742,5.837100000000646,5.854300000002695,5.8703999999997905,5.887000000002445,5.9034000000028755,5.9201000000030035,5.938000000001921,5.9540000000015425,5.970100000002276,5.987700000001496,6.00340000000142,6.020100000001548,6.036500000001979,6.053400000000693,6.070900000002439,6.087100000000646,6.103699999999662,6.120100000000093,6.13640000000305,6.153100000003178,6.169799999999668,6.1864000000023225,6.203199999999924,6.220000000001164,6.236400000001595,6.253100000001723,6.269500000002154,6.286200000002282,6.302800000001298,6.319500000001426,6.336100000000442,6.353000000002794,6.369399999999587,6.386500000000524,6.403000000002066,6.420000000001892,6.437200000000303,6.453800000002957,6.469500000002881,6.486000000000786,6.502800000002026,6.520000000000437,6.535700000000361,6.553200000002107,6.5702000000019325,6.585699999999633,6.602900000001682,6.619800000000396,6.636000000002241,6.652400000002672,6.669200000000274,6.687600000001112,6.702800000002753,6.719900000000052,6.736500000002707,6.752900000003137,6.77020000000266,6.78610000000117,6.802300000003015,6.819000000003143,6.8356000000021595,6.852500000000873,6.869200000001001,6.885900000001129,6.902400000002672,6.919200000000274,6.936000000001513,6.9531000000024505,6.969200000003184,6.9858000000022,7.002200000002631,7.018900000002759,7.03530000000319,7.053299999999581,7.069200000001729,7.086000000002969,7.102100000000064,7.119200000001001,7.135700000002544,7.153300000001764,7.169300000001385,7.186000000001513,7.202100000002247,7.218899999999849,7.236000000000786,7.25170000000071,7.268400000000838,7.285400000000664,7.3016999999999825,7.318500000001222,7.335699999999633,7.35280000000057,7.368099999999686,7.385000000002037,7.401900000000751,7.418100000002596,7.435199999999895,7.452900000000227,7.468000000000757,7.4858000000022,7.501500000002125,7.51850000000195,7.534700000000157,7.552200000001903,7.568300000002637,7.586000000002969,7.601300000002084,7.619000000002416,7.635400000002846,7.6512000000002445,7.668600000000879,7.684500000003027,7.7018000000025495,7.717800000002171,7.735300000000279,7.752599999999802,7.767900000002555,7.7849999999998545,7.8016999999999825,7.818400000000111,7.835500000001048,7.85109999999986,7.867600000001403,7.885000000002037,7.90230000000156,7.917800000002899,7.934100000002218,7.952100000002247,7.968600000000151,7.984700000000885,8.002200000002631,8.01730000000316,8.033800000001065,8.05080000000089,8.068200000001525,8.084500000000844,8.101400000003196,8.117200000000594,8.133900000000722,8.150400000002264,8.167100000002392,8.184900000000198,8.20089999999982,8.217800000002171,8.234200000002602,8.251200000002427,8.266999999999825,8.283900000002177,8.300500000001193,8.317300000002433,8.333700000002864,8.350800000000163,8.367799999999988,8.384200000000419,8.401000000001659,8.417300000000978,8.43380000000252,8.450000000000728,8.467200000002777,8.483500000002095,8.500200000002224,8.517200000002049,8.53399999999965,8.550600000002305,8.566900000001624,8.583700000002864,8.600800000000163,8.616799999999785,8.633200000000215,8.650000000001455,8.666500000002998,8.683400000001711,8.700000000000728,8.716800000001967,8.733400000000984,8.750400000000809,8.766700000000128,8.78399999999965,8.800100000000384,8.816399999999703,8.833000000002357,8.850099999999657,8.870600000002014,8.88300000000163,8.900000000001455,8.916600000000471,8.933400000001711,8.949800000002142,8.966700000000856,8.983400000000984,8.999900000002526,9.016600000002654,9.033100000000559,9.050100000000384,9.066500000000815,9.082800000000134,9.099400000002788,9.115900000000693,9.132800000003044,9.149900000000343,9.166400000001886,9.183000000000902,9.199599999999919,9.216100000001461,9.2329000000027,9.249600000002829,9.266500000001543,9.282600000002276,9.300100000000384,9.315800000000309,9.333099999999831,9.349200000000565,9.366500000000087,9.382800000003044,9.399199999999837,9.416100000002189,9.43250000000262,9.450600000000122,9.468300000000454,9.483299999999872,9.500100000001112,9.515800000001036,9.534500000001572,9.550200000001496,9.566700000003038,9.582600000001548,9.600600000001577,9.61670000000231,9.634600000001228,9.650400000002264,9.666300000000774,9.68210000000181,9.699000000000524,9.715900000002875,9.733900000002905,9.749400000000605,9.76680000000124,9.782300000002579,9.798900000001595,9.815700000002835,9.833600000001752,9.851900000001478,9.86830000000191,9.884600000001228,9.901300000001356,9.91740000000209,9.933500000002823,9.949599999999919,9.965500000002066,9.981900000002497,9.998900000002322,10.015300000002753,10.032900000001973,10.04910000000018,10.065300000002026,10.08220000000074,10.098400000002584,10.117500000000291,10.132499999999709,10.151200000000244,10.166100000002189,10.182400000001508,10.198599999999715,10.215200000002369,10.231900000002497,10.247999999999593,10.264900000001944,10.281600000002072,10.299200000001292,10.314700000002631,10.331900000001042,10.375800000001618,10.408900000002177]",10.4727,,10.4727,10.4727,"[0,-0.6]",,10.4727,1.9903,10.4727,"[0.5,0.7]",8.4824,3.4126,5.0698,1.9903,Acepta,1,0,0,0,0,1,0,25,Train,Otro,5,3,25,10,,,,,,,,,,,,,,,,,,,,,,,,,,,
,,,,,,,,,,,,,27305748,2021-04-21_12h37.46.554,DictadorBinary,2021.1.4,Linux armv7l,60.07449237,0.788888889,-0.886287625,1,0,0,partition_image,Otro,"[0.7888888888888889,0.7888888888888889,0.7888888888888889,0.7888888888888889,0.7888888888888889,0.7888888888888889,0.7888888888888889,0.7888888888888889,0.7888888888888889,0.7888888888888889,0.7888888888888889,0.7888888888888889,0.7888888888888889,0.7888888888888889,0.7888888888888889,0.7888888888888889,0.7888888888888889,0.7888888888888889,0.7888888888888889,0.7888888888888889,0.7888888888888889,0.7888888888888889,0.7888888888888889,0.7888888888888889,0.7888888888888889,0.7888888888888889,0.7888888888888889,0.7888888888888889,0.7888888888888889,0.7888888888888889,0.7888888888888889,0.7888888888888889,0.7888888888888889,0.7888888888888889,0.7888888888888889,0.7888888888888889,0.7888888888888889,0.7888888888888889,0.7888888888888889,0.7888888888888889,0.7888888888888889,0.7888888888888889,0.7888888888888889,0.7888888888888889,0.7888888888888889,0.7888888888888889,0.7888888888888889,0.7888888888888889,0.7888888888888889,0.7888888888888889,0.7888888888888889,0.7888888888888889,0.7888888888888889,0.7888888888888889,0.7888888888888889,0.7888888888888889,0.7888888888888889,0.7888888888888889,0.7888888888888889,0.7888888888888889,0.7888888888888889,0.7888888888888889,0.7888888888888889,0.7888888888888889,0.7888888888888889,0.7888888888888889,0.7888888888888889,0.7888888888888889,0.7888888888888889,0.7888888888888889,0.7888888888888889,0.7888888888888889,0.7888888888888889,0.08703706529405382,0.08703706529405382,0.08703706529405382,0.08703706529405382,0.08703706529405382,0.08703706529405382,0.08703706529405382,0.08703706529405382,0.08703706529405382,0.08703706529405382,0.08703706529405382,0.08703706529405382,0.08703706529405382,0.08703706529405382,0.08703706529405382,0.08703706529405382,0.08703706529405382,0.08703706529405382,0.08703706529405382,0.08703706529405382,0.08703706529405382,0.08703706529405382,0.08703706529405382,0.08703706529405382,0.08703706529405382,0.08703706529405382,0.08703706529405382,0.08703706529405382,0.08703706529405382,0.08703706529405382,0.07777777777777778,0.07777777777777778,0.07222222222222222,0.06851857503255208,0.06666666666666667,0.0648148430718316,0.06296301947699653,0.06111111111111111,0.059259287516276044,0.05740746392144097,0.05740746392144097,0.05555555555555555,0.05555555555555555,0.05555555555555555,0.05555555555555555,0.05555555555555555,0.05555555555555555,0.05555555555555555,0.05555555555555555,0.05555555555555555,0.05555555555555555,0.05555555555555555,0.05555555555555555,0.05555555555555555,0.05555555555555555,0.05555555555555555,0.05555555555555555,0.05555555555555555,0.05555555555555555,0.05555555555555555,0.05555555555555555,0.05555555555555555,0.05370373196072049,0.45,0.051851908365885414,0.45,0.45,0.45,0.45,0.45,0.45,0.45,0.45,0.45,0.45,0.45,0.45,0.45,0.45,0.45,0.45,0.45,0.45,0.45,0.45,0.45,0.45,0.45,0.45,0.45,0.45,0.45,0.45,0.45,0.45,0.45,0.45,0.45,0.45,0.45,0.45,0.45,0.45,0.45,0.45,0.45,0.45,0.45,0.45,0.45,0.45,0.45,0.45,0.45,0.45,0.45,0.45,0.45,0.45,0.45,0.45,0.45,0.45,0.45,0.45,0.45,0.45,0.45,0.45,0.45,0.45,0.45,0.45,0.45,0.45,0.45,0.45,0.45,0.45,0.45,0.45,0.45,0.45,0.45,0.45,0.45,0.45,0.45,0.45,0.45,0.45,0.45,0.45,0.45,0.45,0.45,0.45,0.45,0.45,0.45,0.45,0.45,0.45,0.45,0.45,0.45,0.45,0.45,0.07222222222222222,0.07222222222222222,0.07222222222222222,0.07222222222222222,0.07222222222222222,0.07222222222222222,0.07222222222222222,0.07222222222222222,0.07222222222222222,0.07222222222222222,0.07222222222222222,0.07222222222222222,0.07222222222222222,0.07222222222222222,0.07222222222222222,0.07222222222222222,0.07222222222222222,0.07222222222222222,0.07222222222222222,0.07222222222222222,0.07222222222222222,0.07222222222222222,0.07222222222222222,0.07222222222222222,0.07222222222222222,0.07222222222222222,0.07222222222222222,0.07222222222222222,0.07222222222222222,0.07222222222222222,0.07222222222222222,0.07222222222222222,0.07222222222222222,0.07222222222222222,0.07222222222222222,0.07222222222222222,0.07222222222222222,0.07222222222222222,0.07222222222222222,0.07222222222222222,0.07222222222222222,0.07222222222222222,0.07222222222222222,0.07222222222222222,0.07222222222222222,0.07222222222222222,0.07222222222222222,0.07222222222222222,0.07222222222222222,0.07222222222222222,0.07222222222222222,0.07222222222222222,0.07222222222222222,0.07222222222222222,0.07222222222222222,0.07222222222222222,0.07222222222222222,0.07222222222222222,0.07222222222222222,0.07222222222222222,0.07222222222222222,0.07222222222222222,0.07222222222222222,0.07222222222222222,0.07222222222222222,0.07222222222222222,0.07222222222222222,0.07222222222222222,0.07222222222222222,0.07222222222222222,0.07222222222222222,0.07222222222222222,0.07222222222222222,0.07777777777777778,0.07777777777777778,0.07777777777777778,0.07777777777777778,0.07777777777777778,0.07777777777777778,0.07777777777777778,0.07777777777777778,0.07777777777777778,0.07777777777777778,0.07777777777777778,0.07777777777777778,0.07777777777777778,0.07777777777777778,0.07777777777777778,0.07777777777777778,0.07777777777777778,0.07777777777777778,0.07777777777777778,0.07777777777777778,0.07777777777777778,0.07777777777777778,0.07777777777777778,0.07777777777777778,0.07777777777777778,0.07777777777777778,0.07777777777777778,0.07777777777777778,0.07777777777777778,0.07777777777777778,0.06851857503255208,0.06851857503255208,0.06296301947699653,0.06296301947699653,0.059259287516276044,0.059259287516276044,0.059259287516276044,0.059259287516276044,0.059259287516276044,0.059259287516276044,0.059259287516276044,0.059259287516276044,0.059259287516276044,0.059259287516276044,0.059259287516276044,0.059259287516276044,0.059259287516276044,0.059259287516276044,0.059259287516276044,0.05740746392144097,0.05740746392144097,0.05555555555555555,0.05555555555555555,0.05555555555555555,0.05555555555555555,0.05555555555555555,0.05555555555555555,0.05555555555555555,0.05555555555555555,0.05555555555555555,0.05555555555555555,0.05555555555555555,0.05555555555555555,0.05555555555555555,0.05555555555555555,0.05555555555555555,0.05555555555555555,0.05555555555555555,0.05555555555555555,0.05555555555555555,0.05555555555555555,0.05555555555555555,0.05555555555555555,0.05740746392144097,0.06296301947699653,0.0759259541829427,0.0759259541829427,0.0759259541829427,0.0759259541829427,0.0759259541829427,0.0759259541829427,0.0759259541829427,0.0759259541829427,0.0759259541829427,0.0759259541829427,0.0759259541829427,0.0759259541829427,0.0759259541829427,0.0759259541829427,0.0759259541829427,0.0759259541829427,0.0759259541829427,0.0759259541829427,0.0759259541829427,0.0759259541829427,0.0759259541829427,0.0759259541829427,0.0759259541829427,0.0759259541829427,0.0759259541829427,0.0759259541829427,0.0759259541829427,0.0759259541829427,0.0759259541829427,0.0759259541829427,0.0759259541829427,0.0759259541829427,0.0759259541829427,0.0759259541829427,0.0759259541829427,0.0759259541829427,0.0759259541829427,0.0759259541829427,0.0759259541829427,0.0759259541829427,0.0759259541829427,0.0759259541829427,0.0759259541829427,0.0759259541829427,0.0759259541829427,0.0759259541829427,0.0759259541829427,0.0759259541829427,0.0759259541829427]","[-0.8862876254180602,-0.8862876254180602,-0.8862876254180602,-0.8862876254180602,-0.8862876254180602,-0.8862876254180602,-0.8862876254180602,-0.8862876254180602,-0.8862876254180602,-0.8862876254180602,-0.8862876254180602,-0.8862876254180602,-0.8862876254180602,-0.8862876254180602,-0.8862876254180602,-0.8862876254180602,-0.8862876254180602,-0.8862876254180602,-0.8862876254180602,-0.8862876254180602,-0.8862876254180602,-0.8862876254180602,-0.8862876254180602,-0.8862876254180602,-0.8862876254180602,-0.8862876254180602,-0.8862876254180602,-0.8862876254180602,-0.8862876254180602,-0.8862876254180602,-0.8862876254180602,-0.8862876254180602,-0.8862876254180602,-0.8862876254180602,-0.8862876254180602,-0.8862876254180602,-0.8862876254180602,-0.8862876254180602,-0.8862876254180602,-0.8862876254180602,-0.8862876254180602,-0.8862876254180602,-0.8862876254180602,-0.8862876254180602,-0.8862876254180602,-0.8862876254180602,-0.8862876254180602,-0.8862876254180602,-0.8862876254180602,-0.8862876254180602,-0.8862876254180602,-0.8862876254180602,-0.8862876254180602,-0.8862876254180602,-0.8862876254180602,-0.8862876254180602,-0.8862876254180602,-0.8862876254180602,-0.8862876254180602,-0.8862876254180602,-0.8862876254180602,-0.8862876254180602,-0.8862876254180602,-0.8862876254180602,-0.8862876254180602,-0.8862876254180602,-0.8862876254180602,-0.8862876254180602,-0.8862876254180602,-0.8862876254180602,-0.8862876254180602,-0.8862876254180602,-0.8862876254180602,-0.6142698562264841,-0.6142698562264841,-0.6142698562264841,-0.6142698562264841,-0.6142698562264841,-0.6142698562264841,-0.6142698562264841,-0.6142698562264841,-0.6142698562264841,-0.6142698562264841,-0.6142698562264841,-0.6142698562264841,-0.6142698562264841,-0.6142698562264841,-0.6142698562264841,-0.6142698562264841,-0.6142698562264841,-0.6142698562264841,-0.6142698562264841,-0.6142698562264841,-0.6142698562264841,-0.6142698562264841,-0.6142698562264841,-0.6142698562264841,-0.6142698562264841,-0.6142698562264841,-0.6142698562264841,-0.6142698562264841,-0.6142698562264841,-0.6142698562264841,-0.6131549950028742,-0.6131549950028742,-0.6120401337792643,-0.6120401337792643,-0.6120401337792643,-0.6120401337792643,-0.6120401337792643,-0.6120401337792643,-0.6120401337792643,-0.6120401337792643,-0.6131549950028742,-0.6131549950028742,-0.6142698562264841,-0.6142698562264841,-0.6142698562264841,-0.6153846153846154,-0.6153846153846154,-0.6153846153846154,-0.6153846153846154,-0.6153846153846154,-0.6153846153846154,-0.6153846153846154,-0.6153846153846154,-0.6153846153846154,-0.6153846153846154,-0.6153846153846154,-0.6153846153846154,-0.6153846153846154,-0.6153846153846154,-0.6153846153846154,-0.6153846153846154,-0.6153846153846154,-0.6153846153846154,0.6499442416289977,-0.6153846153846154,0.6499442416289977,0.6499442416289977,0.6499442416289977,0.6499442416289977,0.6499442416289977,0.6499442416289977,0.6499442416289977,0.6499442416289977,0.6499442416289977,0.6499442416289977,0.6499442416289977,0.6499442416289977,0.6499442416289977,0.6499442416289977,0.6499442416289977,0.6499442416289977,0.6499442416289977,0.6499442416289977,0.6499442416289977,0.6499442416289977,0.6499442416289977,0.6499442416289977,0.6499442416289977,0.6499442416289977,0.6499442416289977,0.6499442416289977,0.6499442416289977,0.6499442416289977,0.6499442416289977,0.6499442416289977,0.6499442416289977,0.6499442416289977,0.6499442416289977,0.6499442416289977,0.6499442416289977,0.6499442416289977,0.6499442416289977,0.6499442416289977,0.6499442416289977,0.6499442416289977,0.6499442416289977,0.6499442416289977,0.6499442416289977,0.6499442416289977,0.6499442416289977,0.6499442416289977,0.6499442416289977,0.6499442416289977,0.6499442416289977,0.6499442416289977,0.6499442416289977,0.6499442416289977,0.6499442416289977,0.6499442416289977,0.6499442416289977,0.6499442416289977,0.6499442416289977,0.6499442416289977,0.6499442416289977,0.6499442416289977,0.6499442416289977,0.6499442416289977,0.6499442416289977,0.6499442416289977,0.6499442416289977,0.6499442416289977,0.6499442416289977,0.6499442416289977,0.6499442416289977,0.6499442416289977,0.6499442416289977,0.6499442416289977,0.6499442416289977,0.6499442416289977,0.6499442416289977,0.6499442416289977,0.6499442416289977,0.6499442416289977,0.6499442416289977,0.6499442416289977,0.6499442416289977,0.6499442416289977,0.6499442416289977,0.6499442416289977,0.6499442416289977,0.6499442416289977,0.6499442416289977,0.6499442416289977,0.6499442416289977,0.6499442416289977,0.6499442416289977,0.6499442416289977,0.6499442416289977,0.6499442416289977,0.6499442416289977,0.6499442416289977,0.6499442416289977,0.6499442416289977,0.6499442416289977,0.6499442416289977,0.6499442416289977,0.6499442416289977,0.6499442416289977,-0.609810513397523,-0.609810513397523,-0.609810513397523,-0.609810513397523,-0.609810513397523,-0.609810513397523,-0.609810513397523,-0.609810513397523,-0.609810513397523,-0.609810513397523,-0.609810513397523,-0.609810513397523,-0.609810513397523,-0.609810513397523,-0.609810513397523,-0.609810513397523,-0.609810513397523,-0.609810513397523,-0.609810513397523,-0.609810513397523,-0.609810513397523,-0.609810513397523,-0.609810513397523,-0.609810513397523,-0.609810513397523,-0.609810513397523,-0.609810513397523,-0.609810513397523,-0.609810513397523,-0.609810513397523,-0.609810513397523,-0.609810513397523,-0.609810513397523,-0.609810513397523,-0.609810513397523,-0.609810513397523,-0.609810513397523,-0.609810513397523,-0.609810513397523,-0.609810513397523,-0.609810513397523,-0.609810513397523,-0.609810513397523,-0.609810513397523,-0.609810513397523,-0.609810513397523,-0.609810513397523,-0.609810513397523,-0.609810513397523,-0.609810513397523,-0.609810513397523,-0.609810513397523,-0.609810513397523,-0.609810513397523,-0.609810513397523,-0.609810513397523,-0.609810513397523,-0.609810513397523,-0.609810513397523,-0.609810513397523,-0.609810513397523,-0.609810513397523,-0.609810513397523,-0.609810513397523,-0.609810513397523,-0.609810513397523,-0.609810513397523,-0.609810513397523,-0.609810513397523,-0.609810513397523,-0.609810513397523,-0.609810513397523,-0.609810513397523,-0.6778150067281563,-0.6778150067281563,-0.6778150067281563,-0.6778150067281563,-0.6778150067281563,-0.6778150067281563,-0.6778150067281563,-0.6778150067281563,-0.6778150067281563,-0.6778150067281563,-0.6778150067281563,-0.6778150067281563,-0.6778150067281563,-0.6778150067281563,-0.6778150067281563,-0.6778150067281563,-0.6778150067281563,-0.6778150067281563,-0.6778150067281563,-0.6778150067281563,-0.6778150067281563,-0.6778150067281563,-0.6778150067281563,-0.6778150067281563,-0.6778150067281563,-0.6778150067281563,-0.6778150067281563,-0.6778150067281563,-0.6778150067281563,-0.6778150067281563,-0.6778150067281563,-0.6778150067281563,-0.6778150067281563,-0.6778150067281563,-0.6778150067281563,-0.6778150067281563,-0.6778150067281563,-0.6778150067281563,-0.6778150067281563,-0.6778150067281563,-0.6778150067281563,-0.6778150067281563,-0.6778150067281563,-0.6778150067281563,-0.6778150067281563,-0.6778150067281563,-0.6778150067281563,-0.6778150067281563,-0.6778150067281563,-0.6778150067281563,-0.6778150067281563,-0.6778150067281563,-0.6778150067281563,-0.6778150067281563,-0.6778150067281563,-0.6778150067281563,-0.6778150067281563,-0.6778150067281563,-0.6778150067281563,-0.6778150067281563,-0.6778150067281563,-0.6778150067281563,-0.6778150067281563,-0.6778150067281563,-0.6778150067281563,-0.6778150067281563,-0.6778150067281563,-0.6778150067281563,-0.6778150067281563,-0.6778150067281563,-0.6778150067281563,-0.6778150067281563,-0.6778150067281563,-0.6778150067281563,-0.6755852842809364,-0.6733556638991952,-0.6733556638991952,-0.6733556638991952,-0.6733556638991952,-0.6733556638991952,-0.6733556638991952,-0.6733556638991952,-0.6733556638991952,-0.6733556638991952,-0.6733556638991952,-0.6733556638991952,-0.6733556638991952,-0.6733556638991952,-0.6733556638991952,-0.6733556638991952,-0.6733556638991952,-0.6733556638991952,-0.6733556638991952,-0.6733556638991952,-0.6733556638991952,-0.6733556638991952,-0.6733556638991952,-0.6733556638991952,-0.6733556638991952,-0.6733556638991952,-0.6733556638991952,-0.6733556638991952,-0.6733556638991952,-0.6733556638991952,-0.6733556638991952,-0.6733556638991952,-0.6733556638991952,-0.6733556638991952,-0.6733556638991952,-0.6733556638991952,-0.6733556638991952,-0.6733556638991952,-0.6733556638991952,-0.6733556638991952,-0.6733556638991952,-0.6733556638991952,-0.6733556638991952,-0.6733556638991952,-0.6733556638991952,-0.6733556638991952,-0.6733556638991952,-0.6733556638991952,-0.6733556638991952,-0.6733556638991952]","[1,1,1,1,0,0,0,0,0,0,0,0,0,0,0,0,0,0,0,0,0,0,0,0,0,0,0,0,0,0,0,0,0,0,0,0,0,0,0,0,0,0,0,0,0,0,0,0,0,0,0,0,0,0,0,0,0,0,0,0,0,0,0,0,0,0,0,0,0,0,0,0,0,1,1,1,1,1,1,1,1,1,1,1,1,1,1,1,1,1,1,1,1,1,1,1,1,1,1,1,1,1,1,1,1,1,1,1,1,1,1,1,1,1,1,1,1,1,1,1,1,1,1,1,1,1,1,1,1,1,1,1,1,1,1,1,1,1,1,1,1,0,0,0,0,0,0,0,0,0,0,0,0,0,0,0,0,0,0,0,0,0,0,0,0,0,0,0,0,0,0,0,0,0,0,0,0,0,0,0,0,0,0,0,0,0,0,0,0,0,0,0,0,0,0,0,0,0,0,0,0,0,0,0,0,0,0,0,0,0,0,0,0,0,0,0,0,0,0,0,0,0,0,0,0,0,0,0,0,0,0,0,0,0,0,0,0,0,0,0,0,0,0,0,0,0,0,0,0,0,0,0,0,0,0,0,0,0,0,0,0,0,0,0,0,0,0,0,0,0,0,0,0,0,0,0,0,0,0,0,0,0,0,0,0,0,0,0,0,0,0,0,0,0,0,0,0,0,0,0,0,0,0,0,0,0,0,0,0,0,0,0,0,0,1,1,1,1,1,1,1,1,1,1,1,1,1,1,1,1,1,1,1,1,1,1,1,1,1,1,1,1,1,1,1,1,1,1,1,1,1,1,1,1,1,1,1,1,1,1,1,1,1,1,1,1,1,1,1,1,1,1,1,1,1,1,1,1,1,1,1,1,1,1,1,1,1,1,1,1,0,0,0,0,0,0,0,0,0,0,0,0,0,0,0,0,0,0,0,0,0,0,0,0,0,0,0,0,0,0,0,0,0,0,0,0,0,0,0,0,0,0,0,0,0,0,0,0]","[0,0,0,0,0,0,0,0,0,0,0,0,0,0,0,0,0,0,0,0,0,0,0,0,0,0,0,0,0,0,0,0,0,0,0,0,0,0,0,0,0,0,0,0,0,0,0,0,0,0,0,0,0,0,0,0,0,0,0,0,0,0,0,0,0,0,0,0,0,0,0,0,0,0,0,0,0,0,0,0,0,0,0,0,0,0,0,0,0,0,0,0,0,0,0,0,0,0,0,0,0,0,0,0,0,0,0,0,0,0,0,0,0,0,0,0,0,0,0,0,0,0,0,0,0,0,0,0,0,0,0,0,0,0,0,0,0,0,0,0,0,0,0,0,0,0,0,0,0,0,0,0,0,0,0,0,0,0,0,0,0,0,0,0,0,0,0,0,0,0,0,0,0,0,0,0,0,0,0,0,0,0,0,0,0,0,0,0,0,0,0,0,0,0,0,0,0,0,0,0,0,0,0,0,0,0,0,0,0,0,0,0,0,0,0,0,0,0,0,0,0,0,0,0,0,0,0,0,0,0,0,0,0,0,0,0,0,0,0,0,0,0,0,0,0,0,0,0,0,0,0,0,0,0,0,0,0,0,0,0,0,0,0,0,0,0,0,0,0,0,0,0,0,0,0,0,0,0,0,0,0,0,0,0,0,0,0,0,0,0,0,0,0,0,0,0,0,0,0,0,0,0,0,0,0,0,0,0,0,0,0,0,0,0,0,0,0,0,0,0,0,0,0,0,0,0,0,0,0,0,0,0,0,0,0,0,0,0,0,0,0,0,0,0,0,0,0,0,0,0,0,0,0,0,0,0,0,0,0,0,0,0,0,0,0,0,0,0,0,0,0,0,0,0,0,0,0,0,0,0,0,0,0,0,0,0,0,0,0,0,0,0,0,0,0,0,0,0,0,0,0,0,0,0,0,0,0,0,0,0,0,0,0,0,0,0,0,0,0,0,0,0,0,0,0,0,0,0,0,0,0,0,0,0,0,0,0,0]","[0,0,0,0,0,0,0,0,0,0,0,0,0,0,0,0,0,0,0,0,0,0,0,0,0,0,0,0,0,0,0,0,0,0,0,0,0,0,0,0,0,0,0,0,0,0,0,0,0,0,0,0,0,0,0,0,0,0,0,0,0,0,0,0,0,0,0,0,0,0,0,0,0,0,0,0,0,0,0,0,0,0,0,0,0,0,0,0,0,0,0,0,0,0,0,0,0,0,0,0,0,0,0,0,0,0,0,0,0,0,0,0,0,0,0,0,0,0,0,0,0,0,0,0,0,0,0,0,0,0,0,0,0,0,0,0,0,0,0,0,0,0,0,0,0,0,0,0,0,0,0,0,0,0,0,0,0,0,0,0,0,0,0,0,0,0,0,0,0,0,0,0,0,0,0,0,0,0,0,0,0,0,0,0,0,0,0,0,0,0,0,0,0,0,0,0,0,0,0,0,0,0,0,0,0,0,0,0,0,0,0,0,0,0,0,0,0,0,0,0,0,0,0,0,0,0,0,0,0,0,0,0,0,0,0,0,0,0,0,0,0,0,0,0,0,0,0,0,0,0,0,0,0,0,0,0,0,0,0,0,0,0,0,0,0,0,0,0,0,0,0,0,0,0,0,0,0,0,0,0,0,0,0,0,0,0,0,0,0,0,0,0,0,0,0,0,0,0,0,0,0,0,0,0,0,0,0,0,0,0,0,0,0,0,0,0,0,0,0,0,0,0,0,0,0,0,0,0,0,0,0,0,0,0,0,0,0,0,0,0,0,0,0,0,0,0,0,0,0,0,0,0,0,0,0,0,0,0,0,0,0,0,0,0,0,0,0,0,0,0,0,0,0,0,0,0,0,0,0,0,0,0,0,0,0,0,0,0,0,0,0,0,0,0,0,0,0,0,0,0,0,0,0,0,0,0,0,0,0,0,0,0,0,0,0,0,0,0,0,0,0,0,0,0,0,0,0,0,0,0,0,0,0,0,0,0,0,0]","[0.00010000000111176632,0.007000000001426088,0.013699999999516876,0.030099999999947613,0.04620000000068103,0.06290000000080909,0.07970000000204891,0.09730000000126893,0.11309999999866704,0.12949999999909778,0.14619999999922584,0.18240000000150758,0.21380000000135624,0.22000000000116415,0.23029999999926076,0.2462999999988824,0.2632999999987078,0.27990000000136206,0.29609999999956926,0.31309999999939464,0.33000000000174623,0.34579999999914435,0.3624999999992724,0.37889999999970314,0.3967000000011467,0.4124999999985448,0.43000000000029104,0.44570000000021537,0.4632000000019616,0.4789999999993597,0.49610000000029686,0.5128000000004249,0.5289000000011583,0.5456999999987602,0.5625,0.5789000000004307,0.5966000000007625,0.6123000000006869,0.6298999999999069,0.6463000000003376,0.6624999999985448,0.6788999999989755,0.6968999999990046,0.7124000000003434,0.7296999999998661,0.7456999999994878,0.7629999999990105,0.7792000000008557,0.7960999999995693,0.8126000000011118,0.8294999999998254,0.8453000000008615,0.8624000000017986,0.8791000000019267,0.8961999999992258,0.913300000000163,0.9285999999992782,0.9452999999994063,0.9625000000014552,0.9783999999999651,0.9958000000005995,1.011399999999412,1.0283000000017637,1.04490000000078,1.0627999999996973,1.0781999999999243,1.0953000000008615,1.112199999999575,1.128100000001723,1.144800000001851,1.1615999999994528,1.1781000000009954,1.1948999999985972,1.2115999999987253,1.2308000000011816,1.2880000000004657,1.2992000000012922,1.3136000000013155,1.3300000000017462,1.3476000000009662,1.363600000000588,1.3819000000003143,1.3958999999995285,1.4144000000014785,1.4310000000004948,1.4451000000008207,1.4631000000008498,1.4786999999996624,1.4976999999998952,1.5125000000007276,1.527699999998731,1.5459000000009837,1.5640999999995984,1.5793999999987136,1.5947999999989406,1.6130000000011933,1.6280000000006112,1.6454999999987194,1.6624999999985448,1.6837999999988824,1.6984000000011292,1.7119000000020606,1.7281000000002678,1.7475000000013097,1.760999999998603,1.782100000000355,1.7963999999992666,1.8122000000003027,1.8300000000017462,1.8460999999988417,1.8639000000002852,1.879000000000815,1.8964999999989232,1.9121000000013737,1.9294000000008964,1.9457000000002154,1.9606999999996333,1.9788000000007742,1.9955000000009022,2.0108000000000175,2.029399999999441,2.043600000000879,2.0606000000007043,2.0776000000005297,2.0934999999990396,2.110499999998865,2.1273000000001048,2.1481999999996333,2.160599999999249,2.1785999999992782,2.194899999998597,2.210399999999936,2.2292000000015832,2.2436999999990803,2.2606999999989057,2.281299999998737,2.2960000000020955,2.3123000000014144,2.3290999999990163,2.3438999999998487,2.3611000000018976,2.377100000001519,2.3950000000004366,2.409700000000157,2.426899999998568,2.443699999999808,2.4605999999985215,2.4769000000014785,2.494299999998475,2.5099000000009255,2.526799999999639,2.5446000000010827,2.561099999998987,2.5793999999987136,2.593700000001263,2.6107999999985623,2.6265999999995984,2.6431999999986147,2.6611999999986438,2.676500000001397,2.6939999999995052,2.709900000001653,2.7278000000005704,2.744699999999284,2.761500000000524,2.7770999999993364,2.793499999999767,2.8106000000007043,2.827400000001944,2.844199999999546,2.8597000000008848,2.878000000000611,2.8938000000016473,2.9108000000014727,2.927800000001298,2.942699999999604,2.9596999999994296,2.9765000000006694,2.993900000001304,3.0090999999993073,3.026000000001659,3.044000000001688,3.060399999998481,3.077400000001944,3.092799999998533,3.1103000000002794,3.1260000000002037,3.1431999999986147,3.1595000000015716,3.175999999999476,3.192699999999604,3.2092000000011467,3.2259000000012747,3.2429000000011,3.2590000000018335,3.2762000000002445,3.2933999999986554,3.3100999999987835,3.3256000000001222,3.3427000000010594,3.3598999999994703,3.3765999999995984,3.392700000000332,3.4089999999996508,3.4254000000000815,3.4422000000013213,3.458999999998923,3.4759999999987485,3.4932000000007974,3.5086999999984982,3.52639999999883,3.5420999999987544,3.5600999999987835,3.576199999999517,3.592799999998533,3.6090000000003783,3.6251999999985856,3.6422999999995227,3.660200000002078,3.6765999999988708,3.693200000001525,3.7096999999994296,3.724999999998545,3.7426999999988766,3.758399999998801,3.7757999999994354,3.792700000001787,3.808499999999185,3.8250000000007276,3.842499999998836,3.858299999999872,3.8761999999987893,3.89180000000124,3.910200000002078,3.926100000000588,3.9416000000019267,3.9583000000020547,3.9759999999987485,3.9927999999999884,4.008200000000215,4.0262000000002445,4.043099999998958,4.058199999999488,4.0745999999999185,4.091000000000349,4.108700000000681,4.124599999999191,4.141100000000733,4.15769999999975,4.174600000002101,4.191100000000006,4.207699999999022,4.224300000001676,4.241099999999278,4.257600000000821,4.274300000000949,4.291000000001077,4.307499999998981,4.3245999999999185,4.3408999999992375,4.358100000001286,4.374100000000908,4.390800000001036,4.407400000000052,4.424399999999878,4.4408000000003085,4.457399999999325,4.474600000001374,4.491799999999785,4.507200000000012,4.525099999998929,4.5407000000013795,4.557499999998981,4.574899999999616,4.59059999999954,4.607100000001083,4.623999999999796,4.640400000000227,4.65769999999975,4.673999999999069,4.691299999998591,4.707200000000739,4.7237999999997555,4.74120000000039,4.758300000001327,4.7740000000012515,4.790199999999459,4.80710000000181,4.824100000001636,4.840199999998731,4.856999999999971,4.873500000001513,4.890299999999115,4.907100000000355,4.924699999999575,4.940399999999499,4.957999999998719,4.973500000000058,4.990600000000995,5.007200000000012,5.023300000000745,5.040000000000873,5.056599999999889,5.0733000000000175,5.090800000001764,5.107299999999668,5.126199999998789,5.140500000001339,5.156399999999849,5.1732000000010885,5.190099999999802,5.206699999998818,5.223300000001473,5.239799999999377,5.2567999999992026,5.276499999999942,5.292499999999563,5.308799999998882,5.324899999999616,5.341800000001967,5.360300000000279,5.375800000001618,5.391400000000431,5.406399999999849,5.42410000000018,5.440200000000914,5.458800000000338,5.472799999999552,5.48949999999968,5.5064000000020314,5.524799999999232,5.539499999998952,5.557300000000396,5.573199999998906,5.590800000001764,5.606100000000879,5.622899999998481,5.639699999999721,5.65769999999975,5.674299999998766,5.690399999999499,5.706300000001647,5.724500000000262,5.740200000000186,5.758699999998498,5.776499999999942,5.79149999999936,5.80619999999908,5.824000000000524,5.841400000001158,5.857100000001083,5.872299999999086,5.892899999998917,5.90650000000096,5.924900000001799,5.939099999999598,5.955799999999726,5.974600000001374,5.99120000000039,6.005900000000111,6.022899999999936,6.040199999999459,6.0578999999997905,6.074799999998504,6.091400000001158,6.107800000001589,6.122200000001612,6.138800000000629,6.156699999999546,6.173600000001898,6.188999999998487,6.205600000001141,6.222700000002078,6.239000000001397,6.255900000000111,6.27390000000014,6.2907000000013795,6.305199999998877,6.322000000000116,6.33889999999883,6.355800000001182,6.371900000001915,6.388600000002043,6.406699999999546,6.422800000000279,6.4386000000013155,6.457399999999325,6.473399999998946,6.4900999999990745,6.508099999999104,6.521600000000035,6.538300000000163,6.555599999999686,6.572599999999511,6.589299999999639,6.60490000000209,6.621299999998882,6.6379999999990105,6.654600000001665,6.671300000001793,6.688000000001921,6.705699999998615,6.721300000001065,6.73779999999897,6.755600000000413,6.77219999999943,6.78780000000188,6.804500000002008,6.8215000000018335,6.837999999999738,6.854699999999866,6.871399999999994,6.887600000001839,6.90480000000025,6.921300000001793,6.937900000000809,6.955600000001141,6.972300000001269,6.98779999999897,7.0046000000002095,7.021300000000338,7.03780000000188,7.054700000000594,7.070899999998801,7.08810000000085,7.104200000001583,7.120999999999185,7.137900000001537,7.154300000001967,7.171900000001187,7.188399999999092,7.20430000000124,7.221700000001874,7.237300000000687,7.255199999999604,7.270700000000943,7.287899999999354,7.304599999999482]",7.3407,,7.3407,7.3407,"[0,-0.6]",,7.3407,1.2669,7.3407,"[0.5,0.7]",6.0738,1.0653,5.0085,1.2669,Acepta,1,0,1,1,1,1,6,19,Train,Otro,5,3,25,10,,,,,,,,,,,,,,,,,,,,,,,,,,,
,,,,,,,,,,,,,27305748,2021-04-21_12h37.46.554,DictadorBinary,2021.1.4,Linux armv7l,60.07449237,0.766666667,-0.847268809,1,0,0,partition_image,Otro,"[0.7666666666666667,0.7666666666666667,0.7666666666666667,0.7666666666666667,0.7666666666666667,0.7666666666666667,0.7666666666666667,0.7666666666666667,0.7666666666666667,0.7666666666666667,0.7666666666666667,0.7666666666666667,0.7666666666666667,0.7666666666666667,0.7666666666666667,0.7666666666666667,0.7666666666666667,0.7666666666666667,0.7666666666666667,0.7666666666666667,0.7666666666666667,0.7666666666666667,0.7666666666666667,0.7666666666666667,0.7666666666666667,0.7666666666666667,0.7666666666666667,0.7666666666666667,0.7666666666666667,0.7666666666666667,0.7666666666666667,0.7666666666666667,0.7666666666666667,0.7666666666666667,0.7666666666666667,0.7666666666666667,0.7666666666666667,0.7666666666666667,0.7666666666666667,0.7666666666666667,0.7666666666666667,0.7666666666666667,0.7666666666666667,0.7666666666666667,0.7666666666666667,0.7666666666666667,0.7666666666666667,0.7666666666666667,0.7666666666666667,0.7666666666666667,0.7666666666666667,0.7666666666666667,0.7666666666666667,0.7666666666666667,0.7666666666666667,0.7666666666666667,0.7666666666666667,0.7666666666666667,0.7666666666666667,0.7666666666666667,0.7666666666666667,0.7666666666666667,0.7666666666666667,0.7666666666666667,0.7666666666666667,0.7666666666666667,0.7666666666666667,0.7666666666666667,0.7666666666666667,0.7666666666666667,0.7666666666666667,0.7666666666666667,0.7666666666666667,0.7666666666666667,0.7666666666666667,0.7666666666666667,0.7666666666666667,0.7666666666666667,0.7666666666666667,0.7666666666666667,0.7666666666666667,0.7666666666666667,0.7666666666666667,0.7666666666666667,0.5796296861436632,0.5796296861436632,0.5796296861436632,0.5796296861436632,0.5796296861436632,0.5796296861436632,0.5796296861436632,0.5796296861436632,0.5796296861436632,0.5796296861436632,0.5796296861436632,0.5796296861436632,0.5796296861436632,0.5796296861436632,0.5796296861436632,0.5796296861436632,0.5796296861436632,0.5796296861436632,0.5796296861436632,0.5796296861436632,0.5796296861436632,0.5796296861436632,0.5796296861436632,0.5796296861436632,0.5796296861436632,0.5796296861436632,0.5796296861436632,0.5796296861436632,0.5796296861436632,0.5796296861436632,0.48333333333333334,0.48333333333333334,0.48333333333333334,0.48148159450954864,0.48148159450954864,0.4870371500651042,0.49629635281032985,0.5037038167317708,0.5111111111111111,0.5277777777777778,0.5555555555555556,0.557407463921441,0.5351852416992188,0.507407463921441,0.4925927056206597,0.4870371500651042,0.48518524169921873,0.48518524169921873,0.4870371500651042,0.4870371500651042,0.4888888888888889,0.49629635281032985,0.5,0.5055555555555555,0.514814927842882,0.5277777777777778,0.5388888888888889,0.557407463921441,0.5648149278428819,0.5981482611762152,0.6722222222222223,0.6722222222222223,0.6722222222222223,0.6722222222222223,0.6722222222222223,0.6722222222222223,0.6722222222222223,0.6722222222222223,0.6722222222222223,0.6722222222222223,0.6722222222222223,0.6722222222222223,0.6722222222222223,0.6722222222222223,0.6722222222222223,0.6722222222222223,0.6722222222222223,0.6722222222222223,0.6722222222222223,0.6722222222222223,0.6722222222222223,0.6722222222222223,0.6722222222222223,0.6722222222222223,0.05,0.05,0.12407413058810764,0.1759259541829427,0.2,0.2722222222222222,0.2777777777777778,0.2907407972547743,0.34444444444444444,0.35555555555555557,0.3796296861436632,0.40555555555555556,0.42592603895399306,0.4444444444444444,0.4722222222222222,0.5129630194769965,0.5277777777777778,0.5277777777777778,0.525926038953993,0.5240741305881076,0.5240741305881076,0.5240741305881076,0.5240741305881076,0.5240741305881076,0.525926038953993,0.5277777777777778,0.5277777777777778,0.5296296861436632,0.5296296861436632,0.5314815945095486,0.5333333333333333,0.5333333333333333,0.5351852416992188,0.5351852416992188,0.5351852416992188,0.5351852416992188,0.5370371500651042,0.5370371500651042,0.5388888888888889,0.5388888888888889,0.5407407972547743,0.5444444444444444,0.5462963528103298]","[-0.8472688094429348,-0.8472688094429348,-0.8472688094429348,-0.8472688094429348,-0.8472688094429348,-0.8472688094429348,-0.8472688094429348,-0.8472688094429348,-0.8472688094429348,-0.8472688094429348,-0.8472688094429348,-0.8472688094429348,-0.8472688094429348,-0.8472688094429348,-0.8472688094429348,-0.8472688094429348,-0.8472688094429348,-0.8472688094429348,-0.8472688094429348,-0.8472688094429348,-0.8472688094429348,-0.8472688094429348,-0.8472688094429348,-0.8472688094429348,-0.8472688094429348,-0.8472688094429348,-0.8472688094429348,-0.8472688094429348,-0.8472688094429348,-0.8472688094429348,-0.8472688094429348,-0.8472688094429348,-0.8472688094429348,-0.8472688094429348,-0.8472688094429348,-0.8472688094429348,-0.8472688094429348,-0.8472688094429348,-0.8472688094429348,-0.8472688094429348,-0.8472688094429348,-0.8472688094429348,-0.8472688094429348,-0.8472688094429348,-0.8472688094429348,-0.8472688094429348,-0.8472688094429348,-0.8472688094429348,-0.8472688094429348,-0.8472688094429348,-0.8472688094429348,-0.8472688094429348,-0.8472688094429348,-0.8472688094429348,-0.8472688094429348,-0.8472688094429348,-0.8472688094429348,-0.8472688094429348,-0.8472688094429348,-0.8472688094429348,-0.8472688094429348,-0.8472688094429348,-0.8472688094429348,-0.8472688094429348,-0.8472688094429348,-0.8472688094429348,-0.8472688094429348,-0.8472688094429348,-0.8472688094429348,-0.8472688094429348,-0.8472688094429348,-0.8472688094429348,-0.8472688094429348,-0.8472688094429348,-0.8472688094429348,-0.8472688094429348,-0.8472688094429348,-0.8472688094429348,-0.8472688094429348,-0.8472688094429348,-0.8472688094429348,-0.8472688094429348,-0.8472688094429348,-0.8472688094429348,-0.0981048277787939,-0.0981048277787939,-0.0981048277787939,-0.0981048277787939,-0.0981048277787939,-0.0981048277787939,-0.0981048277787939,-0.0981048277787939,-0.0981048277787939,-0.0981048277787939,-0.0981048277787939,-0.0981048277787939,-0.0981048277787939,-0.0981048277787939,-0.0981048277787939,-0.0981048277787939,-0.0981048277787939,-0.0981048277787939,-0.0981048277787939,-0.0981048277787939,-0.0981048277787939,-0.0981048277787939,-0.0981048277787939,-0.0981048277787939,-0.0981048277787939,-0.0981048277787939,-0.0981048277787939,-0.0981048277787939,-0.0981048277787939,-0.0981048277787939,-0.40356751508936034,-0.40356751508936034,-0.40356751508936034,-0.38573024583899457,-0.35005580940374165,-0.30434782608695654,-0.25863994483565006,-0.2062431003736413,-0.14604243147732024,-0.05797104851457985,0.05128198323839883,0.1293199213850857,0.18283162707070444,0.21739130434782608,0.23968781436167433,0.25418060200668896,0.25975470399378137,0.2619843754082619,0.2653288570136131,0.26978814880983487,0.2753623018296666,0.28874022825107126,0.29431438127090304,0.3065774464686977,0.3232998544954536,0.33890745233133884,0.35451505016722407,0.3745819397993311,0.38127090301003347,0.40468227424749165,0.4503901554987981,0.4503901554987981,0.4503901554987981,0.4503901554987981,0.4503901554987981,0.4503901554987981,0.4503901554987981,0.4503901554987981,0.4503901554987981,0.4503901554987981,0.4503901554987981,0.4503901554987981,0.4503901554987981,0.4503901554987981,0.4503901554987981,0.4503901554987981,0.4503901554987981,0.4503901554987981,0.4503901554987981,0.4503901554987981,0.4503901554987981,0.4503901554987981,0.4503901554987981,0.4503901554987981,-0.6755852842809364,-0.6755852842809364,-0.48717955522313966,-0.40356751508936034,-0.3667782174304975,-0.24860650001959658,-0.2318840919928407,-0.20735785953177258,-0.07580831776494565,-0.04905246492213629,0,0.04905236285665761,0.09587510533157399,0.14158298658288043,0.20512818811729203,0.27870678343501776,0.3266443361008048,0.3556298603580947,0.3723522683848505,0.3868450049971258,0.3968784498131793,0.3979933110367893,0.4013377926421405,0.4069118946292329,0.4136008578399352,0.4236343026559887,0.4325529372811716,0.44370119228809574,0.4570791187095004,0.46934223494003446,0.4804904899469586,0.4927536061774927,0.5039018611844168,0.5139353060004703,0.5239687508165238,0.5340021956325773,0.5440356404486308,0.5540690852646843,0.5629877198898673,0.5719063545150501,0.5808249636238634,0.5897435727326766,0.6008918532559704]","[1,1,1,1,0,0,0,0,0,0,0,0,0,0,0,0,0,0,0,0,0,0,0,0,0,0,0,0,0,0,0,0,0,0,0,0,0,0,0,0,0,0,0,0,0,0,0,0,0,0,0,0,0,0,0,0,0,0,0,0,0,0,0,0,0,0,0,0,0,0,0,0,0,0,0,0,0,0,0,0,0,0,0,0,1,1,1,1,1,0,0,0,0,0,0,0,0,0,0,0,0,0,0,0,0,0,0,0,0,0,0,0,0,0,1,1,1,1,1,1,1,1,1,1,1,1,1,1,1,1,1,1,1,1,1,1,1,1,1,1,1,1,1,1,1,0,0,0,0,0,0,0,0,0,0,0,0,0,0,0,0,0,0,0,0,0,0,0,1,1,1,1,1,1,1,1,1,1,1,1,1,1,1,1,1,1,1,1,1,1,1,1,1,1,1,1,1,1,1,1,1,1,1,1,1,1,1,1,1,1,1]","[0,0,0,0,0,0,0,0,0,0,0,0,0,0,0,0,0,0,0,0,0,0,0,0,0,0,0,0,0,0,0,0,0,0,0,0,0,0,0,0,0,0,0,0,0,0,0,0,0,0,0,0,0,0,0,0,0,0,0,0,0,0,0,0,0,0,0,0,0,0,0,0,0,0,0,0,0,0,0,0,0,0,0,0,0,0,0,0,0,0,0,0,0,0,0,0,0,0,0,0,0,0,0,0,0,0,0,0,0,0,0,0,0,0,0,0,0,0,0,0,0,0,0,0,0,0,0,0,0,0,0,0,0,0,0,0,0,0,0,0,0,0,0,0,0,0,0,0,0,0,0,0,0,0,0,0,0,0,0,0,0,0,0,0,0,0,0,0,0,0,0,0,0,0,0,0,0,0,0,0,0,0,0,0,0,0,0,0,0,0,0,0,0,0,0,0,0,0,0,0,0,0,0,0,0,0,0,0,0,0,0]","[0,0,0,0,0,0,0,0,0,0,0,0,0,0,0,0,0,0,0,0,0,0,0,0,0,0,0,0,0,0,0,0,0,0,0,0,0,0,0,0,0,0,0,0,0,0,0,0,0,0,0,0,0,0,0,0,0,0,0,0,0,0,0,0,0,0,0,0,0,0,0,0,0,0,0,0,0,0,0,0,0,0,0,0,0,0,0,0,0,0,0,0,0,0,0,0,0,0,0,0,0,0,0,0,0,0,0,0,0,0,0,0,0,0,0,0,0,0,0,0,0,0,0,0,0,0,0,0,0,0,0,0,0,0,0,0,0,0,0,0,0,0,0,0,0,0,0,0,0,0,0,0,0,0,0,0,0,0,0,0,0,0,0,0,0,0,0,0,0,0,0,0,0,0,0,0,0,0,0,0,0,0,0,0,0,0,0,0,0,0,0,0,0,0,0,0,0,0,0,0,0,0,0,0,0,0,0,0,0,0,0]","[0,0.0054000000018277206,0.017299999999522697,0.0323000000025786,0.04890000000159489,0.06560000000172295,0.08179999999993015,0.10000000000218279,0.1154000000024098,0.13320000000021537,0.1484999999993306,0.16510000000198488,0.18180000000211294,0.198500000002241,0.21500000000014552,0.2319999999999709,0.24880000000121072,0.2649999999994179,0.281699999999546,0.2982000000010885,0.3150999999998021,0.33170000000245636,0.34830000000147265,0.36590000000069267,0.38210000000253785,0.39830000000074506,0.4150000000008731,0.43170000000100117,0.44830000000001746,0.46480000000155997,0.48210000000108266,0.49790000000211876,0.5146000000022468,0.5315000000009604,0.5480000000025029,0.5648000000001048,0.5817000000024564,0.5989000000008673,0.6154000000024098,0.6314000000020314,0.6480000000010477,0.6650000000008731,0.6814000000013039,0.6981000000014319,0.7147000000004482,0.731500000001688,0.7479000000021188,0.7648000000008324,0.7813000000023749,0.7980000000025029,0.8146000000015192,0.831400000002759,0.8482000000003609,0.8644000000022061,0.8822000000000116,0.8993000000009488,0.9150000000008731,0.9321000000018103,0.9479000000028464,0.9649000000026717,0.9812000000019907,0.997800000001007,1.014500000001135,1.0313999999998487,1.0476000000016938,1.0645000000004075,1.0810999999994237,1.0979000000006636,1.1147999999993772,1.130700000001525,1.1476000000002387,1.164200000002893,1.1826000000000931,1.1988000000019383,1.2142999999996391,1.2307000000000698,1.2473000000027241,1.2639000000017404,1.280399999999645,1.2969000000011874,1.3136000000013155,1.3304000000025553,1.3471000000026834,1.363600000000588,1.3810000000012224,1.4143000000003667,1.4197000000021944,1.4318999999995867,1.4485999999997148,1.4631000000008498,1.4812999999994645,1.4979999999995925,1.5138000000006286,1.5306000000018685,1.5477000000028056,1.564700000002631,1.5806000000011409,1.5971000000026834,1.6138000000028114,1.6296000000002095,1.6468999999997322,1.6632000000026892,1.6798000000017055,1.69629999999961,1.713500000001659,1.7301000000006752,1.746900000001915,1.763600000002043,1.7800000000024738,1.7969000000011874,1.8135000000002037,1.8299000000006345,1.8469000000004598,1.8631999999997788,1.8809000000001106,1.8989000000001397,1.9151000000019849,1.9314000000013039,1.9495000000024447,1.9639999999999418,1.981100000000879,1.9984000000004016,2.015400000000227,2.0320000000028813,2.0482000000010885,2.065500000000611,2.0817000000024564,2.097799999999552,2.116100000002916,2.1313000000009197,2.148800000002666,2.164100000001781,2.181300000000192,2.1984000000011292,2.2159000000028755,2.2327000000004773,2.248200000001816,2.2656999999999243,2.282100000000355,2.2972000000008848,2.3145000000004075,2.333099999999831,2.347799999999552,2.3651000000027125,2.381100000002334,2.3958000000020547,2.41280000000188,2.429500000002008,2.44629999999961,2.463400000000547,2.4789999999993597,2.4959000000017113,2.512399999999616,2.5297000000027765,2.5459000000009837,2.563000000001921,2.579600000000937,2.5957000000016706,2.6128000000026077,2.629800000002433,2.6455000000023574,2.6622000000024855,2.680100000001403,2.69629999999961,2.7128000000011525,2.728500000001077,2.7459000000017113,2.762399999999616,2.7785000000003492,2.7968000000000757,2.854699999999866,2.868399999999383,2.882100000002538,2.9086999999999534,2.922099999999773,2.9333000000005995,2.9721000000026834,2.980200000001787,2.996399999999994,3.013200000001234,3.0310000000026776,3.04660000000149,3.0637000000024273,3.0810999999994237,3.096400000002177,3.1141999999999825,3.1297000000013213,3.146500000002561,3.1640000000006694,3.1810000000004948,3.1972999999998137,3.213400000000547,3.229699999999866,3.2476000000024214,3.2639000000017404,3.281200000001263,3.2965000000003783,3.3123000000014144,3.3297999999995227,3.346300000001065,3.363499999999476,3.3793000000005122,3.3963000000003376,3.412899999999354,3.4294000000008964,3.4474000000009255,3.463900000002468,3.4809000000022934,3.4963000000025204,3.5130000000026484,3.5305000000007567]",3.5772,,3.5772,3.5772,"[0,-0.6]",,3.5772,2.8435,3.5772,"[0.5,0.7]",0.7337,0.0578,0.6759,2.8435,Acepta,0,0,2,2,2,1,13,12,Train,Otro,5,3,25,10,,,,,,,,,,,,,,,,,,,,,,,,,,,
